SensorId, TimeStamp (s), FrameNumber, AccX (g), AccY (g), AccZ (g), GyroX (deg/s), GyroY (deg/s), GyroZ (deg/s), MagX (uT), MagY (uT), MagZ (uT), EulerX (deg), EulerY (deg), EulerZ (deg), QuatW, QuatX, QuatY, QuatZ, LinAccX (g), LinAccY (g), LinAccZ (g), Pressure (kPa), Altitude (m), Temperature (degC), HeaveMotion (m)
1, 0.0000, 0, 0.2372, 0.5442, -0.8126, 0.0083, 4.3627, 6.4152, -26.1327, 43.9930, -79.2458, -33.6477, 14.1286, -132.0208, -0.4187, -0.0092, 0.3103, -0.8534, 0.0068, -0.0068, 0.0053, 0.0000, 0.0000, 0.0000, 0.0000
1, 0.0050, 1, 0.2408, 0.5444, -0.8131, -0.2821, 4.6624, 6.6496, -26.4250, 42.3268, -79.4212, -33.6454, 14.1664, -132.0056, -0.4189, -0.0090, 0.3104, -0.8533, 0.0037, -0.0072, 0.0059, 0.0000, 0.0000, 0.0000, 0.0000
1, 0.0100, 2, 0.2411, 0.5440, -0.8116, -0.2856, 4.9334, 6.7196, -26.4250, 42.3268, -79.4212, -33.6432, 14.2056, -131.9908, -0.4191, -0.0087, 0.3105, -0.8532, 0.0042, -0.0069, 0.0045, 0.0000, 0.0000, 0.0000, 0.0000
1, 0.0150, 3, 0.2395, 0.5452, -0.8127, -0.3246, 5.1339, 6.8929, -26.4250, 42.3268, -79.4212, -33.6412, 14.2461, -131.9759, -0.4193, -0.0084, 0.3106, -0.8530, 0.0064, -0.0082, 0.0057, 0.0000, 0.0000, 0.0000, 0.0000
1, 0.0200, 4, 0.2383, 0.5477, -0.8134, -0.5057, 5.4423, 6.7473, -26.4250, 42.6483, -79.4212, -33.6404, 14.2874, -131.9625, -0.4195, -0.0081, 0.3107, -0.8529, 0.0083, -0.0109, 0.0066, 0.0000, 0.0000, 0.0000, 0.0000
1, 0.0250, 5, 0.2439, 0.5477, -0.8134, -0.6533, 5.7784, 6.9170, -26.4250, 42.6483, -79.4212, -33.6404, 14.3306, -131.9493, -0.4196, -0.0078, 0.3108, -0.8528, 0.0034, -0.0109, 0.0067, 0.0000, 0.0000, 0.0000, 0.0000
1, 0.0300, 6, 0.2503, 0.5451, -0.8053, -0.8358, 5.8693, 7.3991, -25.7819, 42.2976, -79.7428, -33.6428, 14.3760, -131.9346, -0.4198, -0.0075, 0.3110, -0.8526, -0.0022, -0.0084, -0.0012, 0.0000, 0.0000, 0.0000, 0.0000
1, 0.0350, 7, 0.2548, 0.5470, -0.8050, -1.0154, 6.0059, 7.3231, -25.7819, 42.2976, -79.7428, -33.6443, 14.4213, -131.9203, -0.4200, -0.0072, 0.3112, -0.8525, -0.0059, -0.0104, -0.0013, 0.0000, 0.0000, 0.0000, 0.0000
1, 0.0400, 8, 0.2599, 0.5439, -0.8064, -1.2285, 5.9024, 7.3155, -25.8989, 42.9699, -80.0351, -33.6468, 14.4662, -131.9057, -0.4202, -0.0069, 0.3113, -0.8523, -0.0103, -0.0074, 0.0003, 0.0000, 0.0000, 0.0000, 0.0000
1, 0.0450, 9, 0.2668, 0.5378, -0.8068, -1.0482, 5.8390, 7.1473, -25.8989, 42.9699, -80.0351, -33.6486, 14.5103, -131.8917, -0.4204, -0.0066, 0.3115, -0.8522, -0.0164, -0.0014, 0.0009, 0.0000, 0.0000, 0.0000, 0.0000
1, 0.0500, 10, 0.2689, 0.5385, -0.8045, -1.0798, 5.5699, 6.9714, -25.8989, 42.9699, -80.0351, -33.6504, 14.5528, -131.8777, -0.4206, -0.0064, 0.3116, -0.8520, -0.0178, -0.0022, -0.0013, 0.0000, 0.0000, 0.0000, 0.0000
1, 0.0550, 11, 0.2664, 0.5435, -0.8040, -1.2525, 5.0934, 6.8949, -26.1327, 42.5022, -79.7428, -33.6529, 14.5931, -131.8626, -0.4208, -0.0061, 0.3117, -0.8519, -0.0146, -0.0072, -0.0016, 0.0000, 0.0000, 0.0000, 0.0000
1, 0.0600, 12, 0.2627, 0.5411, -0.8057, -1.3551, 4.8609, 6.5770, -26.1327, 42.5022, -79.7428, -33.6561, 14.6315, -131.8483, -0.4210, -0.0059, 0.3119, -0.8518, -0.0103, -0.0048, 0.0002, 0.0000, 0.0000, 0.0000, 0.0000
1, 0.0650, 13, 0.2623, 0.5370, -0.8081, -1.2811, 4.7642, 6.3352, -25.6065, 43.4084, -80.0935, -33.6590, 14.6689, -131.8347, -0.4211, -0.0056, 0.3120, -0.8516, -0.0092, -0.0008, 0.0029, 0.0000, 0.0000, 0.0000, 0.0000
1, 0.0700, 14, 0.2629, 0.5425, -0.8070, -0.9583, 4.6655, 6.2768, -25.6065, 43.4084, -80.0935, -33.6604, 14.7057, -131.8210, -0.4213, -0.0054, 0.3121, -0.8515, -0.0092, -0.0063, 0.0019, 0.0000, 0.0000, 0.0000, 0.0000
1, 0.0750, 15, 0.2591, 0.5448, -0.8037, -1.0270, 4.4977, 6.1346, -25.6065, 43.4084, -80.0935, -33.6621, 14.7414, -131.8075, -0.4215, -0.0051, 0.3123, -0.8514, -0.0048, -0.0088, -0.0012, 0.0000, 0.0000, 0.0000, 0.0000
1, 0.0800, 16, 0.2539, 0.5434, -0.8062, -1.1675, 4.4338, 5.8853, -25.3727, 43.3207, -79.6843, -33.6662, 14.7757, -131.7952, -0.4216, -0.0049, 0.3124, -0.8512, 0.0010, -0.0073, 0.0014, 0.0000, 0.0000, 0.0000, 0.0000
1, 0.0850, 17, 0.2550, 0.5445, -0.8057, -1.0952, 4.2958, 5.9923, -25.3727, 43.3207, -79.6843, -33.6682, 14.8102, -131.7817, -0.4218, -0.0047, 0.3125, -0.8511, 0.0005, -0.0085, 0.0010, 0.0000, 0.0000, 0.0000, 0.0000
1, 0.0900, 18, 0.2533, 0.5490, -0.8062, -1.2409, 4.5326, 6.0224, -25.6942, 43.2914, -79.1289, -33.6711, 14.8457, -131.7688, -0.4219, -0.0045, 0.3127, -0.8510, 0.0028, -0.0131, 0.0018, 0.0000, 0.0000, 0.0000, 0.0000
1, 0.0950, 19, 0.2541, 0.5440, -0.8031, -1.0983, 4.5328, 6.0623, -25.6942, 43.2914, -79.1289, -33.6733, 14.8814, -131.7557, -0.4221, -0.0043, 0.3128, -0.8509, 0.0026, -0.0081, -0.0013, 0.0000, 0.0000, 0.0000, 0.0000
1, 0.1000, 20, 0.2564, 0.5391, -0.8038, -1.0643, 4.7040, 6.0288, -25.6942, 43.2914, -79.1289, -33.6754, 14.9177, -131.7432, -0.4223, -0.0040, 0.3129, -0.8507, 0.0009, -0.0033, -0.0004, 0.0000, 0.0000, 0.0000, 0.0000
1, 0.1050, 21, 0.2581, 0.5408, -0.8069, -0.8861, 4.6689, 6.1398, -25.1388, 43.0576, -79.3628, -33.6764, 14.9541, -131.7302, -0.4224, -0.0038, 0.3130, -0.8506, -0.0002, -0.0051, 0.0029, 0.0000, 0.0000, 0.0000, 0.0000
1, 0.1100, 22, 0.2614, 0.5401, -0.8036, -0.9200, 4.5331, 6.1035, -25.1388, 43.0576, -79.3628, -33.6776, 14.9899, -131.7169, -0.4226, -0.0035, 0.3131, -0.8505, -0.0030, -0.0045, -0.0003, 0.0000, 0.0000, 0.0000, 0.0000
1, 0.1150, 23, 0.2659, 0.5454, -0.8038, -0.8861, 4.5978, 6.2792, -25.1973, 42.5314, -79.2751, -33.6785, 15.0264, -131.7030, -0.4228, -0.0033, 0.3133, -0.8504, -0.0068, -0.0098, 0.0001, 0.0000, 0.0000, 0.0000, 0.0000
1, 0.1200, 24, 0.2708, 0.5429, -0.8015, -1.0965, 4.1848, 6.4108, -25.1973, 42.5314, -79.2751, -33.6799, 15.0616, -131.6874, -0.4229, -0.0031, 0.3134, -0.8502, -0.0111, -0.0074, -0.0021, 0.0000, 0.0000, 0.0000, 0.0000
1, 0.1250, 25, 0.2790, 0.5371, -0.8016, -1.2724, 3.8742, 6.5438, -25.1973, 42.5314, -79.2751, -33.6818, 15.0959, -131.6704, -0.4231, -0.0029, 0.3135, -0.8501, -0.0187, -0.0017, -0.0018, 0.0000, 0.0000, 0.0000, 0.0000
1, 0.1300, 26, 0.2854, 0.5389, -0.8021, -1.2304, 3.3301, 6.5097, -25.4312, 42.6191, -79.4505, -33.6840, 15.1366, -131.6516, -0.4233, -0.0026, 0.3136, -0.8499, -0.0245, -0.0035, -0.0012, 0.0000, 0.0000, 0.0000, 0.0000
1, 0.1350, 27, 0.2841, 0.5363, -0.8029, -1.3660, 2.8234, 6.2600, -25.4312, 42.6191, -79.4505, -33.6859, 15.1657, -131.6327, -0.4235, -0.0024, 0.3137, -0.8498, -0.0226, -0.0010, -0.0002, 0.0000, 0.0000, 0.0000, 0.0000
1, 0.1400, 28, 0.2783, 0.5404, -0.8027, -1.0359, 2.2898, 5.8174, -25.1388, 43.0868, -79.3043, -33.6862, 15.1914, -131.6142, -0.4237, -0.0023, 0.3138, -0.8497, -0.0163, -0.0052, -0.0004, 0.0000, 0.0000, 0.0000, 0.0000
1, 0.1450, 29, 0.2760, 0.5435, -0.8018, -1.2124, 2.1895, 5.6715, -25.1388, 43.0868, -79.3043, -33.6875, 15.2162, -131.5961, -0.4239, -0.0022, 0.3139, -0.8496, -0.0137, -0.0082, -0.0011, 0.0000, 0.0000, 0.0000, 0.0000
1, 0.1500, 30, 0.2712, 0.5435, -0.8008, -1.3501, 1.8879, 5.3871, -25.0804, 43.0868, -79.2751, -33.6896, 15.2390, -131.5783, -0.4241, -0.0020, 0.3140, -0.8494, -0.0084, -0.0083, -0.0020, 0.0000, 0.0000, 0.0000, 0.0000
1, 0.1550, 31, 0.2782, 0.5479, -0.7976, -1.0263, 1.5803, 5.5378, -25.0804, 43.3207, -79.2751, -33.6896, 15.2609, -131.5589, -0.4243, -0.0019, 0.3141, -0.8493, -0.0150, -0.0127, -0.0051, 0.0000, 0.0000, 0.0000, 0.0000
1, 0.1600, 32, 0.2704, 0.5450, -0.8034, -1.2377, 1.3761, 5.4602, -25.0804, 43.3207, -79.2751, -33.6907, 15.2818, -131.5393, -0.4244, -0.0018, 0.3141, -0.8492, -0.0069, -0.0099, 0.0007, 0.0000, 0.0000, 0.0000, 0.0000
1, 0.1650, 33, 0.2682, 0.5468, -0.8008, -1.0555, 1.1424, 5.2919, -25.7527, 42.7068, -80.1520, -33.6908, 15.3012, -131.5198, -0.4246, -0.0017, 0.3142, -0.8491, -0.0044, -0.0117, -0.0018, 0.0000, 0.0000, 0.0000, 0.0000
1, 0.1700, 34, 0.2622, 0.5448, -0.8034, -1.0935, 1.3466, 5.2908, -25.7527, 42.7068, -80.1520, -33.6912, 15.3215, -131.5008, -0.4248, -0.0016, 0.3143, -0.8490, 0.0019, -0.0097, 0.0009, 0.0000, 0.0000, 0.0000, 0.0000
1, 0.1750, 35, 0.2573, 0.5435, -0.8051, -0.9525, 1.4830, 5.3309, -25.2558, 43.2622, -79.1874, -33.6911, 15.3425, -131.4821, -0.4250, -0.0015, 0.3143, -0.8489, 0.0072, -0.0086, 0.0027, 0.0000, 0.0000, 0.0000, 0.0000
1, 0.1800, 36, 0.2581, 0.5424, -0.8032, -1.0947, 1.3777, 5.4304, -25.2558, 43.2622, -79.1874, -33.6948, 15.3590, -131.4635, -0.4251, -0.0015, 0.3144, -0.8488, 0.0067, -0.0075, 0.0009, 0.0000, 0.0000, 0.0000, 0.0000
1, 0.1850, 37, 0.2561, 0.5429, -0.8097, -1.2067, 1.6430, 5.7408, -25.2558, 43.2622, -79.1874, -33.6955, 15.3817, -131.4435, -0.4253, -0.0013, 0.3145, -0.8486, 0.0091, -0.0080, 0.0075, 0.0000, 0.0000, 0.0000, 0.0000
1, 0.1900, 38, 0.2539, 0.5376, -0.8074, -0.7463, 1.9517, 5.7924, -24.9050, 42.9699, -79.4797, -33.6941, 15.4059, -131.4241, -0.4255, -0.0012, 0.3145, -0.8485, 0.0117, -0.0027, 0.0052, 0.0000, 0.0000, 0.0000, 0.0000
1, 0.1950, 39, 0.2606, 0.5382, -0.8061, -0.6784, 2.2232, 5.8649, -24.9050, 42.9699, -79.4797, -33.6925, 15.4314, -131.4052, -0.4257, -0.0011, 0.3146, -0.8484, 0.0054, -0.0035, 0.0040, 0.0000, 0.0000, 0.0000, 0.0000
1, 0.2000, 40, 0.2670, 0.5486, -0.8023, -0.8615, 2.5953, 5.9287, -24.9342, 43.0576, -79.5966, -33.6920, 15.4587, -131.3871, -0.4259, -0.0009, 0.3147, -0.8483, -0.0005, -0.0139, 0.0003, 0.0000, 0.0000, 0.0000, 0.0000
1, 0.2050, 41, 0.2713, 0.5446, -0.8005, -0.8973, 2.4530, 6.2063, -24.9342, 43.0576, -79.5966, -33.6912, 15.4861, -131.3674, -0.4261, -0.0007, 0.3148, -0.8482, -0.0044, -0.0100, -0.0014, 0.0000, 0.0000, 0.0000, 0.0000
1, 0.2100, 42, 0.2840, 0.5374, -0.7988, -0.8223, 2.1121, 6.2434, -24.9342, 43.0576, -79.5966, -33.6897, 15.5122, -131.3465, -0.4263, -0.0006, 0.3148, -0.8480, -0.0167, -0.0029, -0.0030, 0.0000, 0.0000, 0.0000, 0.0000
1, 0.2150, 43, 0.2875, 0.5445, -0.8021, -0.8577, 2.0067, 6.3816, -25.1388, 43.7591, -79.9182, -33.6882, 15.5383, -131.3247, -0.4265, -0.0004, 0.3149, -0.8479, -0.0198, -0.0100, 0.0005, 0.0000, 0.0000, 0.0000, 0.0000
1, 0.2200, 44, 0.2724, 0.5418, -0.8053, -0.4976, 1.8430, 6.1848, -25.1388, 43.7591, -79.9182, -33.6849, 15.5631, -131.3033, -0.4267, -0.0003, 0.3150, -0.8478, -0.0042, -0.0074, 0.0037, 0.0000, 0.0000, 0.0000, 0.0000
1, 0.2250, 45, 0.2711, 0.5394, -0.8035, -0.8207, 2.0824, 6.0341, -24.9927, 43.7884, -79.9474, -33.6836, 15.5885, -131.2832, -0.4269, -0.0001, 0.3150, -0.8476, -0.0025, -0.0051, 0.0020, 0.0000, 0.0000, 0.0000, 0.0000
1, 0.2300, 46, 0.2642, 0.5515, -0.8032, -0.7886, 2.2471, 6.3146, -24.9927, 43.7884, -79.9474, -33.6889, 15.6101, -131.2641, -0.4271, -0.0001, 0.3151, -0.8475, 0.0048, -0.0174, 0.0018, 0.0000, 0.0000, 0.0000, 0.0000
1, 0.2350, 47, 0.2546, 0.5430, -0.8057, -1.0796, 2.6156, 6.5141, -24.9927, 43.7884, -79.9474, -33.6887, 15.6391, -131.2435, -0.4273, 0.0001, 0.3152, -0.8474, 0.0149, -0.0088, 0.0044, 0.0000, 0.0000, 0.0000, 0.0000
1, 0.2400, 48, 0.2662, 0.5410, -0.8027, -1.4764, 2.7400, 6.9538, -24.8758, 42.7360, -79.7720, -33.6901, 15.6698, -131.2214, -0.4275, 0.0003, 0.3153, -0.8472, 0.0038, -0.0069, 0.0016, 0.0000, 0.0000, 0.0000, 0.0000
1, 0.2450, 49, 0.2618, 0.5505, -0.8060, -1.3417, 3.1727, 7.4825, -24.8758, 42.7360, -79.7720, -33.6906, 15.7037, -131.1982, -0.4277, 0.0005, 0.3154, -0.8471, 0.0087, -0.0165, 0.0049, 0.0000, 0.0000, 0.0000, 0.0000
1, 0.2500, 50, 0.2569, 0.5425, -0.8053, -1.7391, 3.5783, 7.5038, -25.3727, 43.0868, -80.1812, -33.6933, 15.7394, -131.1760, -0.4280, 0.0007, 0.3156, -0.8469, 0.0142, -0.0085, 0.0044, 0.0000, 0.0000, 0.0000, 0.0000
1, 0.2550, 51, 0.2612, 0.5418, -0.8082, -1.9983, 4.0042, 8.2279, -25.3727, 43.0868, -80.1812, -33.6967, 15.7789, -131.1520, -0.4282, 0.0009, 0.3157, -0.8467, 0.0105, -0.0079, 0.0075, 0.0000, 0.0000, 0.0000, 0.0000
1, 0.2600, 52, 0.2474, 0.5434, -0.8065, -1.8315, 4.7786, 8.7232, -25.3727, 43.0868, -79.5966, -33.6994, 15.8230, -131.1281, -0.4285, 0.0012, 0.3159, -0.8465, 0.0250, -0.0096, 0.0060, 0.0000, 0.0000, 0.0000, 0.0000
1, 0.2650, 53, 0.2542, 0.5413, -0.8089, -2.4811, 4.8911, 9.6424, -24.9342, 44.0222, -79.5966, -33.7042, 15.8701, -131.1005, -0.4288, 0.0014, 0.3161, -0.8463, 0.0191, -0.0075, 0.0086, 0.0000, 0.0000, 0.0000, 0.0000
1, 0.2700, 54, 0.2589, 0.5487, -0.8102, -2.9200, 5.2050, 10.7787, -24.9342, 44.0222, -79.5966, -33.7102, 15.9216, -131.0689, -0.4291, 0.0017, 0.3163, -0.8461, 0.0152, -0.0149, 0.0102, 0.0000, 0.0000, 0.0000, 0.0000
1, 0.2750, 55, 0.2627, 0.5498, -0.8083, -3.4984, 5.2817, 11.8050, -25.0219, 43.1453, -80.5028, -33.7178, 15.9764, -131.0331, -0.4295, 0.0020, 0.3165, -0.8458, 0.0123, -0.0162, 0.0085, 0.0000, 0.0000, 0.0000, 0.0000
1, 0.2800, 56, 0.2765, 0.5542, -0.8011, -4.0388, 5.2964, 12.5535, -25.0219, 43.1453, -80.5028, -33.7304, 16.0333, -130.9947, -0.4298, 0.0023, 0.3168, -0.8455, -0.0006, -0.0205, 0.0017, 0.0000, 0.0000, 0.0000, 0.0000
1, 0.2850, 57, 0.2783, 0.5523, -0.8069, -4.2232, 5.8055, 12.5825, -24.8173, 43.9930, -79.8305, -33.7411, 16.0923, -130.9570, -0.4302, 0.0026, 0.3170, -0.8452, -0.0014, -0.0186, 0.0078, 0.0000, 0.0000, 0.0000, 0.0000
1, 0.2900, 58, 0.2797, 0.5361, -0.8027, -4.4747, 6.0461, 12.3995, -24.8173, 43.9930, -79.8305, -33.7534, 16.1519, -130.9209, -0.4306, 0.0029, 0.3173, -0.8449, -0.0017, -0.0024, 0.0040, 0.0000, 0.0000, 0.0000, 0.0000
1, 0.2950, 59, 0.2878, 0.5346, -0.7963, -4.4374, 6.0166, 12.1914, -24.8173, 43.9930, -79.8305, -33.7657, 16.2108, -130.8855, -0.4310, 0.0032, 0.3176, -0.8446, -0.0089, -0.0009, -0.0020, 0.0000, 0.0000, 0.0000, 0.0000
1, 0.3000, 60, 0.2930, 0.5472, -0.7956, -5.1876, 6.0098, 12.2695, -24.4373, 44.6945, -79.8012, -33.7817, 16.2699, -130.8498, -0.4313, 0.0035, 0.3179, -0.8443, -0.0131, -0.0134, -0.0024, 0.0000, 0.0000, 0.0000, 0.0000
1, 0.3050, 61, 0.2941, 0.5421, -0.7939, -5.3994, 5.7338, 12.3664, -24.4373, 44.6945, -79.8012, -33.7983, 16.3281, -130.8129, -0.4317, 0.0038, 0.3182, -0.8440, -0.0132, -0.0083, -0.0037, 0.0000, 0.0000, 0.0000, 0.0000
1, 0.3100, 62, 0.2906, 0.5474, -0.7929, -5.1089, 5.4696, 12.0623, -24.3496, 43.3499, -80.0935, -33.8136, 16.3844, -130.7765, -0.4321, 0.0041, 0.3185, -0.8437, -0.0087, -0.0135, -0.0043, 0.0000, 0.0000, 0.0000, 0.0000
1, 0.3150, 63, 0.2989, 0.5459, -0.7929, -5.0680, 5.3467, 11.4356, -24.3496, 43.3499, -80.0935, -33.8293, 16.4384, -130.7425, -0.4324, 0.0043, 0.3188, -0.8434, -0.0161, -0.0119, -0.0039, 0.0000, 0.0000, 0.0000, 0.0000
1, 0.3200, 64, 0.3006, 0.5325, -0.7958, -4.6727, 5.2876, 11.1355, -24.3496, 43.3499, -80.0935, -33.8434, 16.4914, -130.7096, -0.4328, 0.0046, 0.3190, -0.8432, -0.0169, 0.0015, -0.0006, 0.0000, 0.0000, 0.0000, 0.0000
1, 0.3250, 65, 0.3011, 0.5283, -0.7978, -4.4884, 5.0968, 10.5486, -24.4373, 43.9930, -79.8597, -33.8570, 16.5419, -130.6787, -0.4331, 0.0048, 0.3193, -0.8429, -0.0166, 0.0058, 0.0017, 0.0000, 0.0000, 0.0000, 0.0000
1, 0.3300, 66, 0.2998, 0.5363, -0.7944, -4.0918, 5.0072, 10.0741, -24.4373, 43.9930, -79.8597, -33.8699, 16.5938, -130.6496, -0.4334, 0.0051, 0.3195, -0.8426, -0.0145, -0.0022, -0.0014, 0.0000, 0.0000, 0.0000, 0.0000
1, 0.3350, 67, 0.3011, 0.5354, -0.7964, -3.7645, 4.7825, 9.5271, -23.7942, 44.2853, -79.8597, -33.8809, 16.6402, -130.6223, -0.4337, 0.0053, 0.3198, -0.8424, -0.0149, -0.0013, 0.0009, 0.0000, 0.0000, 0.0000, 0.0000
1, 0.3400, 68, 0.3039, 0.5401, -0.7948, -3.5112, 4.5130, 9.4659, -23.7942, 44.2853, -79.8597, -33.8905, 16.6853, -130.5944, -0.4340, 0.0056, 0.3200, -0.8422, -0.0170, -0.0060, -0.0004, 0.0000, 0.0000, 0.0000, 0.0000
1, 0.3450, 69, 0.3032, 0.5419, -0.7920, -3.5415, 4.1424, 9.2551, -23.7942, 44.2853, -79.8597, -33.9001, 16.7283, -130.5663, -0.4342, 0.0058, 0.3202, -0.8419, -0.0155, -0.0077, -0.0029, 0.0000, 0.0000, 0.0000, 0.0000
1, 0.3500, 70, 0.3035, 0.5427, -0.7923, -3.4286, 3.7387, 9.0492, -24.2619, 44.1976, -80.0935, -33.9091, 16.7690, -130.5380, -0.4345, 0.0060, 0.3204, -0.8417, -0.0151, -0.0085, -0.0024, 0.0000, 0.0000, 0.0000, 0.0000
1, 0.3550, 71, 0.3040, 0.5413, -0.7906, -3.2795, 3.4433, 8.5656, -24.2619, 44.1976, -80.0935, -33.9177, 16.8072, -130.5109, -0.4348, 0.0062, 0.3206, -0.8415, -0.0150, -0.0071, -0.0038, 0.0000, 0.0000, 0.0000, 0.0000
1, 0.3600, 72, 0.3078, 0.5397, -0.7864, -2.7368, 3.0118, 8.2005, -24.0865, 42.6483, -80.0643, -33.9236, 16.8426, -130.4842, -0.4350, 0.0063, 0.3207, -0.8413, -0.0182, -0.0055, -0.0078, 0.0000, 0.0000, 0.0000, 0.0000
1, 0.3650, 73, 0.3168, 0.5435, -0.7835, -2.4455, 2.5381, 8.1404, -24.0865, 42.6483, -80.0643, -33.9278, 16.8758, -130.4563, -0.4353, 0.0065, 0.3209, -0.8411, -0.0266, -0.0093, -0.0105, 0.0000, 0.0000, 0.0000, 0.0000
1, 0.3700, 74, 0.3087, 0.5405, -0.7907, -1.7224, 2.1853, 7.3282, -24.0865, 42.6483, -80.0643, -33.9290, 16.9054, -130.4309, -0.4355, 0.0067, 0.3210, -0.8410, -0.0181, -0.0064, -0.0032, 0.0000, 0.0000, 0.0000, 0.0000
1, 0.3750, 75, 0.3063, 0.5249, -0.7942, -1.7127, 1.7949, 6.4558, -24.0573, 43.7591, -79.8889, -33.9309, 16.9308, -130.4081, -0.4358, 0.0068, 0.3211, -0.8408, -0.0152, 0.0091, 0.0004, 0.0000, 0.0000, 0.0000, 0.0000
1, 0.3800, 76, 0.2922, 0.5371, -0.7940, -1.4225, 1.9904, 5.3498, -24.0573, 43.7591, -79.8889, -33.9344, 16.9530, -130.3911, -0.4359, 0.0069, 0.3212, -0.8407, -0.0007, -0.0031, 0.0003, 0.0000, 0.0000, 0.0000, 0.0000
1, 0.3850, 77, 0.2914, 0.5393, -0.7930, -1.3833, 1.7906, 5.1416, -23.7942, 44.2853, -79.3628, -33.9363, 16.9748, -130.3740, -0.4361, 0.0070, 0.3212, -0.8406, 0.0005, -0.0053, -0.0005, 0.0000, 0.0000, 0.0000, 0.0000
1, 0.3900, 78, 0.2981, 0.5432, -0.7939, -0.8102, 1.6593, 5.0919, -23.7942, 44.2853, -79.3628, -33.9353, 16.9959, -130.3568, -0.4363, 0.0071, 0.3213, -0.8405, -0.0059, -0.0093, 0.0004, 0.0000, 0.0000, 0.0000, 0.0000
1, 0.3950, 79, 0.2922, 0.5432, -0.7960, -1.3795, 1.6624, 4.7578, -23.9988, 44.5191, -79.9474, -33.9376, 17.0160, -130.3410, -0.4364, 0.0072, 0.3214, -0.8404, 0.0004, -0.0093, 0.0026, 0.0000, 0.0000, 0.0000, 0.0000
1, 0.4000, 80, 0.2939, 0.5388, -0.7951, -1.0204, 1.7074, 4.3519, -23.9988, 44.5191, -79.9474, -33.9387, 17.0353, -130.3271, -0.4365, 0.0073, 0.3214, -0.8403, -0.0010, -0.0050, 0.0019, 0.0000, 0.0000, 0.0000, 0.0000
1, 0.4050, 81, 0.3012, 0.5425, -0.7952, -1.2668, 1.4348, 4.2730, -23.9988, 44.5191, -79.9474, -33.9408, 17.0531, -130.3127, -0.4367, 0.0074, 0.3215, -0.8402, -0.0080, -0.0087, 0.0020, 0.0000, 0.0000, 0.0000, 0.0000
1, 0.4100, 82, 0.2976, 0.5396, -0.7981, -1.5842, 1.1633, 4.1219, -23.8234, 43.9930, -80.0058, -33.9444, 17.0695, -130.2983, -0.4368, 0.0075, 0.3216, -0.8401, -0.0041, -0.0058, 0.0050, 0.0000, 0.0000, 0.0000, 0.0000
1, 0.4150, 83, 0.2992, 0.5416, -0.7988, -1.8299, 0.7515, 4.1825, -23.8234, 43.9930, -80.0058, -33.9489, 17.0843, -130.2823, -0.4370, 0.0075, 0.3217, -0.8400, -0.0055, -0.0078, 0.0058, 0.0000, 0.0000, 0.0000, 0.0000
1, 0.4200, 84, 0.2907, 0.5314, -0.8243, -2.4313, 0.0939, 4.4744, -23.8527, 44.4315, -80.5905, -33.9554, 17.0971, -130.2632, -0.4371, 0.0076, 0.3218, -0.8398, 0.0032, 0.0024, 0.0315, 0.0000, 0.0000, 0.0000, 0.0000
1, 0.4250, 85, 0.2767, 0.5048, -0.8716, -6.1615, -2.7352, 6.5718, -23.8527, 44.4315, -80.5905, -33.9755, 17.1042, -130.2267, -0.4374, 0.0074, 0.3219, -0.8396, 0.0174, 0.0292, 0.0789, 0.0000, 0.0000, 0.0000, 0.0000
1, 0.4300, 86, 0.2566, 0.4700, -0.8325, -15.6951, -8.1329, 10.6589, -23.8527, 44.4315, -80.5905, -34.0260, 17.0954, -130.1552, -0.4379, 0.0070, 0.3223, -0.8392, 0.0375, 0.0646, 0.0402, 0.0000, 0.0000, 0.0000, 0.0000
1, 0.4350, 87, 0.2805, 0.5212, -0.8103, -25.0200, -11.1604, 17.1289, -23.2973, 43.9345, -80.5905, -34.1196, 17.0972, -130.0482, -0.4387, 0.0063, 0.3230, -0.8386, 0.0135, 0.0146, 0.0188, 0.0000, 0.0000, 0.0000, 0.0000
1, 0.4400, 88, 0.3016, 0.5842, -0.7723, -28.7337, -12.6761, 19.9613, -23.2973, 43.9345, -80.5905, -34.2269, 17.1008, -129.9246, -0.4396, 0.0056, 0.3238, -0.8378, -0.0076, -0.0469, -0.0182, 0.0000, 0.0000, 0.0000, 0.0000
1, 0.4450, 89, 0.3031, 0.6010, -0.7684, -29.0287, -11.6486, 19.6033, -23.4142, 44.8115, -79.6258, -34.3371, 17.1079, -129.8055, -0.4405, 0.0049, 0.3246, -0.8370, -0.0090, -0.0623, -0.0211, 0.0000, 0.0000, 0.0000, 0.0000
1, 0.4500, 90, 0.3066, 0.5549, -0.7706, -27.0206, -11.4620, 17.8602, -23.4142, 44.8115, -79.6258, -34.4395, 17.1110, -129.6946, -0.4413, 0.0042, 0.3254, -0.8363, -0.0124, -0.0147, -0.0179, 0.0000, 0.0000, 0.0000, 0.0000
1, 0.4550, 91, 0.3045, 0.5454, -0.7849, -25.4712, -9.3316, 17.4990, -23.4142, 44.8115, -79.6258, -34.5365, 17.1221, -129.5915, -0.4421, 0.0036, 0.3261, -0.8356, -0.0101, -0.0039, -0.0026, 0.0000, 0.0000, 0.0000, 0.0000
1, 0.4600, 92, 0.3018, 0.5514, -0.7912, -24.1878, -8.7625, 16.7776, -23.6481, 43.9638, -79.3920, -34.6285, 17.1337, -129.4932, -0.4428, 0.0031, 0.3268, -0.8349, -0.0072, -0.0087, 0.0046, 0.0000, 0.0000, 0.0000, 0.0000
1, 0.4650, 93, 0.2906, 0.5717, -0.7909, -24.6193, -8.6348, 17.0416, -23.6481, 43.9638, -79.3920, -34.7224, 17.1466, -129.3942, -0.4436, 0.0025, 0.3276, -0.8342, 0.0041, -0.0278, 0.0053, 0.0000, 0.0000, 0.0000, 0.0000
1, 0.4700, 94, 0.2912, 0.5749, -0.7827, -24.0401, -8.7441, 15.9455, -23.0634, 44.5191, -78.8366, -34.8147, 17.1562, -129.2995, -0.4443, 0.0020, 0.3283, -0.8336, 0.0037, -0.0297, -0.0020, 0.0000, 0.0000, 0.0000, 0.0000
1, 0.4750, 95, 0.3055, 0.5875, -0.7937, -22.8363, -7.2840, 14.9432, -23.0634, 44.5191, -78.8366, -34.9035, 17.1690, -129.2136, -0.4449, 0.0015, 0.3290, -0.8330, -0.0104, -0.0411, 0.0099, 0.0000, 0.0000, 0.0000, 0.0000
1, 0.4800, 96, 0.2591, 0.5504, -0.8202, -24.9240, -8.1526, 13.4378, -23.0634, 44.5191, -78.8366, -35.0039, 17.1681, -129.1318, -0.4455, 0.0008, 0.3297, -0.8323, 0.0361, -0.0027, 0.0373, 0.0000, 0.0000, 0.0000, 0.0000
1, 0.4850, 97, 0.2827, 0.5938, -0.8021, -26.3200, -6.7576, 11.4363, -23.3850, 44.6361, -79.1874, -35.1150, 17.1733, -129.0625, -0.4461, 0.0002, 0.3305, -0.8317, 0.0126, -0.0446, 0.0203, 0.0000, 0.0000, 0.0000, 0.0000
1, 0.4900, 98, 0.3146, 0.6002, -0.7795, -25.4960, -5.7142, 9.0594, -23.3850, 44.6361, -79.1874, -35.2259, 17.1760, -129.0065, -0.4465, -0.0003, 0.3313, -0.8312, -0.0193, -0.0495, -0.0012, 0.0000, 0.0000, 0.0000, 0.0000
1, 0.4950, 99, 0.2965, 0.5938, -0.7457, -21.7531, -3.6902, 6.3682, -23.5019, 44.6068, -78.9827, -35.3234, 17.1793, -128.9682, -0.4467, -0.0008, 0.3320, -0.8308, -0.0012, -0.0418, -0.0340, 0.0000, 0.0000, 0.0000, 0.0000
1, 0.5000, 100, 0.2969, 0.5856, -0.7523, -17.8106, -1.4688, 5.7080, -23.5019, 44.6068, -78.9827, -35.4039, 17.1899, -128.9393, -0.4470, -0.0011, 0.3327, -0.8304, -0.0014, -0.0324, -0.0266, 0.0000, 0.0000, 0.0000, 0.0000
1, 0.5050, 101, 0.3108, 0.5870, -0.7628, -14.2155, 0.1822, 4.5114, -23.9111, 45.3669, -78.9827, -35.4695, 17.2037, -128.9207, -0.4471, -0.0013, 0.3332, -0.8301, -0.0151, -0.0329, -0.0153, 0.0000, 0.0000, 0.0000, 0.0000
1, 0.5100, 102, 0.3021, 0.5671, -0.7501, -10.9344, 1.5386, 2.6404, -23.9111, 45.3669, -78.9827, -35.5222, 17.2176, -128.9141, -0.4472, -0.0014, 0.3336, -0.8299, -0.0062, -0.0123, -0.0275, 0.0000, 0.0000, 0.0000, 0.0000
1, 0.5150, 103, 0.3068, 0.5746, -0.7564, -7.6331, 3.3355, 2.5152, -23.9111, 45.3669, -78.9827, -35.5602, 17.2385, -128.9135, -0.4473, -0.0014, 0.3339, -0.8297, -0.0106, -0.0193, -0.0207, 0.0000, 0.0000, 0.0000, 0.0000
1, 0.5200, 104, 0.3195, 0.5731, -0.7572, -5.6727, 3.8688, 2.0967, -23.4434, 45.4253, -78.8951, -35.5894, 17.2603, -128.9164, -0.4473, -0.0014, 0.3342, -0.8296, -0.0229, -0.0174, -0.0195, 0.0000, 0.0000, 0.0000, 0.0000
1, 0.5250, 105, 0.3132, 0.5692, -0.7593, -4.0309, 4.1617, 1.6667, -23.4434, 45.4253, -78.8951, -35.6112, 17.2821, -128.9220, -0.4473, -0.0013, 0.3344, -0.8295, -0.0162, -0.0132, -0.0171, 0.0000, 0.0000, 0.0000, 0.0000
1, 0.5300, 106, 0.3067, 0.5691, -0.7659, -2.8172, 4.4171, 1.2563, -23.9111, 46.4192, -78.7489, -35.6370, 17.3079, -128.9321, -0.4472, -0.0011, 0.3347, -0.8294, -0.0094, -0.0130, -0.0101, 0.0000, 0.0000, 0.0000, 0.0000
1, 0.5350, 107, 0.3060, 0.5706, -0.7683, -2.4230, 4.3899, 1.0609, -23.9111, 46.4192, -78.7489, -35.6517, 17.3289, -128.9409, -0.4472, -0.0010, 0.3349, -0.8294, -0.0082, -0.0142, -0.0074, 0.0000, 0.0000, 0.0000, 0.0000
1, 0.5400, 108, 0.3169, 0.5728, -0.7603, -2.0663, 4.4972, 0.9341, -23.9111, 46.4192, -78.7489, -35.6650, 17.3499, -128.9507, -0.4472, -0.0009, 0.3351, -0.8293, -0.0188, -0.0163, -0.0152, 0.0000, 0.0000, 0.0000, 0.0000
1, 0.5450, 109, 0.3106, 0.5680, -0.7724, -2.2356, 3.5016, 1.2409, -23.5604, 45.2207, -78.8366, -35.6778, 17.3677, -128.9561, -0.4472, -0.0008, 0.3352, -0.8293, -0.0122, -0.0114, -0.0029, 0.0000, 0.0000, 0.0000, 0.0000
1, 0.5500, 110, 0.2910, 0.5480, -0.7804, -2.1600, 3.0918, 1.3128, -23.5604, 45.2207, -78.8366, -35.6897, 17.3841, -128.9600, -0.4472, -0.0007, 0.3353, -0.8292, 0.0077, 0.0088, 0.0052, 0.0000, 0.0000, 0.0000, 0.0000
1, 0.5550, 111, 0.3014, 0.5635, -0.7731, -1.9819, 3.1625, 1.2494, -23.7942, 45.0453, -78.3981, -35.7009, 17.4006, -128.9643, -0.4472, -0.0006, 0.3355, -0.8291, -0.0024, -0.0066, -0.0019, 0.0000, 0.0000, 0.0000, 0.0000
1, 0.5600, 112, 0.3120, 0.5769, -0.7664, -1.6246, 3.0596, 1.4015, -23.7942, 45.0453, -78.3981, -35.7101, 17.4171, -128.9677, -0.4472, -0.0005, 0.3356, -0.8291, -0.0128, -0.0200, -0.0084, 0.0000, 0.0000, 0.0000, 0.0000
1, 0.5650, 113, 0.3107, 0.5607, -0.7713, -2.0476, 2.5801, 1.3859, -23.7942, 45.0453, -78.3981, -35.7209, 17.4316, -128.9697, -0.4472, -0.0004, 0.3357, -0.8290, -0.0112, -0.0037, -0.0034, 0.0000, 0.0000, 0.0000, 0.0000
1, 0.5700, 114, 0.3121, 0.5597, -0.7656, -1.7958, 2.1988, 1.7781, -24.2327, 44.5484, -78.8074, -35.7296, 17.4457, -128.9689, -0.4472, -0.0004, 0.3358, -0.8290, -0.0123, -0.0026, -0.0089, 0.0000, 0.0000, 0.0000, 0.0000
1, 0.5750, 115, 0.3217, 0.5826, -0.7604, -1.2626, 2.6545, 1.3440, -24.2327, 44.5484, -78.8074, -35.7367, 17.4604, -128.9713, -0.4472, -0.0003, 0.3359, -0.8289, -0.0217, -0.0254, -0.0139, 0.0000, 0.0000, 0.0000, 0.0000
1, 0.5800, 116, 0.3265, 0.5688, -0.7641, -0.7924, 2.7504, 0.1745, -23.5019, 44.8699, -78.5151, -35.7510, 17.5035, -128.9792, -0.4473, 0.0000, 0.3362, -0.8288, -0.0260, -0.0116, -0.0100, 0.0000, 0.0000, 0.0000, 0.0000
1, 0.5850, 117, 0.3078, 0.5454, -0.7691, -0.3257, 2.6917, -0.1231, -23.5019, 44.8699, -78.5151, -35.7553, 17.5141, -128.9880, -0.4472, 0.0001, 0.3362, -0.8288, -0.0069, 0.0118, -0.0048, 0.0000, 0.0000, 0.0000, 0.0000
1, 0.5900, 118, 0.3086, 0.5568, -0.7688, 0.1023, 2.8350, -0.3172, -23.5019, 44.8699, -78.5151, -35.7578, 17.5247, -128.9980, -0.4472, 0.0002, 0.3363, -0.8288, -0.0075, 0.0005, -0.0051, 0.0000, 0.0000, 0.0000, 0.0000
1, 0.5950, 119, 0.3077, 0.5707, -0.7653, 0.3847, 3.1796, -0.4114, -23.3557, 45.8638, -78.6904, -35.7593, 17.5364, -129.0095, -0.4471, 0.0003, 0.3363, -0.8288, -0.0064, -0.0135, -0.0085, 0.0000, 0.0000, 0.0000, 0.0000
1, 0.6000, 120, 0.3157, 0.5675, -0.7674, 0.6719, 2.9747, -0.2968, -23.3557, 45.8638, -78.6904, -35.7591, 17.5476, -129.0199, -0.4470, 0.0005, 0.3364, -0.8289, -0.0142, -0.0104, -0.0063, 0.0000, 0.0000, 0.0000, 0.0000
1, 0.6050, 121, 0.3136, 0.5561, -0.7654, 0.5316, 2.9116, -0.5810, -23.8527, 45.7176, -78.5151, -35.7599, 17.5577, -129.0313, -0.4470, 0.0006, 0.3364, -0.8289, -0.0120, 0.0011, -0.0082, 0.0000, 0.0000, 0.0000, 0.0000
1, 0.6100, 122, 0.3119, 0.5608, -0.7678, 1.0317, 2.9517, -0.7028, -23.8527, 45.7176, -78.5151, -35.7583, 17.5676, -129.0433, -0.4469, 0.0007, 0.3364, -0.8289, -0.0101, -0.0036, -0.0058, 0.0000, 0.0000, 0.0000, 0.0000
1, 0.6150, 123, 0.3113, 0.5592, -0.7683, 1.2480, 2.7834, -0.7303, -24.1450, 44.6653, -78.8074, -35.7556, 17.5768, -129.0549, -0.4468, 0.0008, 0.3364, -0.8289, -0.0093, -0.0021, -0.0053, 0.0000, 0.0000, 0.0000, 0.0000
1, 0.6200, 124, 0.3064, 0.5634, -0.7696, 1.4598, 3.1660, -1.0363, -24.1450, 44.6653, -78.8074, -35.7526, 17.5866, -129.0691, -0.4468, 0.0009, 0.3364, -0.8290, -0.0043, -0.0064, -0.0040, 0.0000, 0.0000, 0.0000, 0.0000
1, 0.6250, 125, 0.3017, 0.5603, -0.7748, 1.4932, 3.2995, -0.8954, -24.1450, 44.6653, -78.8074, -35.7493, 17.5973, -129.0830, -0.4467, 0.0011, 0.3364, -0.8290, 0.0006, -0.0033, 0.0011, 0.0000, 0.0000, 0.0000, 0.0000
1, 0.6300, 126, 0.2988, 0.5649, -0.7785, 1.5659, 3.1985, -0.9278, -23.8819, 45.3084, -78.8366, -35.7501, 17.6027, -129.0981, -0.4466, 0.0011, 0.3365, -0.8291, 0.0037, -0.0080, 0.0049, 0.0000, 0.0000, 0.0000, 0.0000
1, 0.6350, 127, 0.3010, 0.5684, -0.7705, 1.3532, 2.8833, -0.5869, -23.8819, 45.3084, -78.8366, -35.7468, 17.6127, -129.1095, -0.4465, 0.0013, 0.3365, -0.8291, 0.0015, -0.0116, -0.0031, 0.0000, 0.0000, 0.0000, 0.0000
1, 0.6400, 128, 0.3076, 0.5698, -0.7676, 0.9975, 2.7441, -0.5647, -23.2680, 45.3669, -78.9827, -35.7451, 17.6221, -129.1203, -0.4465, 0.0014, 0.3365, -0.8291, -0.0049, -0.0130, -0.0060, 0.0000, 0.0000, 0.0000, 0.0000
1, 0.6450, 129, 0.3137, 0.5682, -0.7671, 1.2148, 2.4729, -0.5574, -23.2680, 45.3669, -78.9827, -35.7420, 17.6306, -129.1302, -0.4464, 0.0015, 0.3365, -0.8291, -0.0108, -0.0115, -0.0064, 0.0000, 0.0000, 0.0000, 0.0000
1, 0.6500, 130, 0.3194, 0.5603, -0.7655, 1.2885, 2.3756, -0.7643, -23.2680, 45.3669, -78.9827, -35.7387, 17.6380, -129.1408, -0.4463, 0.0016, 0.3365, -0.8292, -0.0164, -0.0036, -0.0080, 0.0000, 0.0000, 0.0000, 0.0000
1, 0.6550, 131, 0.3217, 0.5653, -0.7658, 1.9340, 2.2129, -0.9161, -23.7650, 46.2730, -78.9827, -35.7323, 17.6443, -129.1515, -0.4463, 0.0017, 0.3365, -0.8292, -0.0186, -0.0088, -0.0077, 0.0000, 0.0000, 0.0000, 0.0000
1, 0.6600, 132, 0.3193, 0.5702, -0.7628, 2.2596, 2.0533, -1.3235, -23.7650, 46.2730, -78.9827, -35.7246, 17.6487, -129.1634, -0.4462, 0.0018, 0.3364, -0.8293, -0.0161, -0.0138, -0.0108, 0.0000, 0.0000, 0.0000, 0.0000
1, 0.6650, 133, 0.3209, 0.5696, -0.7630, 2.7966, 2.2038, -1.8276, -23.0342, 46.1269, -79.6551, -35.7150, 17.6523, -129.1779, -0.4461, 0.0019, 0.3364, -0.8294, -0.0176, -0.0132, -0.0107, 0.0000, 0.0000, 0.0000, 0.0000
1, 0.6700, 134, 0.3189, 0.5619, -0.7647, 3.2615, 2.5642, -2.6132, -23.0342, 46.1269, -79.6551, -35.7045, 17.6551, -129.1969, -0.4460, 0.0020, 0.3363, -0.8295, -0.0156, -0.0057, -0.0091, 0.0000, 0.0000, 0.0000, 0.0000
1, 0.6750, 135, 0.3194, 0.5584, -0.7649, 3.5847, 2.3958, -2.6020, -23.0342, 46.1269, -79.6551, -35.6922, 17.6573, -129.2153, -0.4458, 0.0021, 0.3362, -0.8296, -0.0161, -0.0024, -0.0089, 0.0000, 0.0000, 0.0000, 0.0000
1, 0.6800, 136, 0.3171, 0.5602, -0.7633, 3.9804, 2.3026, -2.9021, -23.2680, 45.6884, -79.0704, -35.6837, 17.6648, -129.2358, -0.4457, 0.0023, 0.3362, -0.8297, -0.0137, -0.0044, -0.0107, 0.0000, 0.0000, 0.0000, 0.0000
1, 0.6850, 137, 0.3179, 0.5633, -0.7650, 4.5491, 2.6874, -3.1955, -23.2680, 45.6884, -79.0704, -35.6676, 17.6664, -129.2576, -0.4455, 0.0024, 0.3361, -0.8298, -0.0145, -0.0076, -0.0090, 0.0000, 0.0000, 0.0000, 0.0000
1, 0.6900, 138, 0.3148, 0.5620, -0.7631, 4.8700, 2.9004, -3.4979, -22.8880, 45.0161, -78.5735, -35.6504, 17.6680, -129.2814, -0.4454, 0.0026, 0.3360, -0.8299, -0.0113, -0.0066, -0.0111, 0.0000, 0.0000, 0.0000, 0.0000
1, 0.6950, 139, 0.3202, 0.5668, -0.7621, 5.5111, 3.2182, -3.8237, -22.8880, 45.0161, -78.5735, -35.6308, 17.6699, -129.3076, -0.4452, 0.0027, 0.3358, -0.8301, -0.0166, -0.0117, -0.0123, 0.0000, 0.0000, 0.0000, 0.0000
1, 0.7000, 140, 0.3225, 0.5643, -0.7633, 6.0122, 3.4033, -4.3640, -22.8880, 45.0161, -78.5735, -35.6096, 17.6710, -129.3366, -0.4450, 0.0029, 0.3357, -0.8302, -0.0189, -0.0094, -0.0113, 0.0000, 0.0000, 0.0000, 0.0000
1, 0.7050, 141, 0.3209, 0.5594, -0.7621, 6.4078, 3.3102, -4.6642, -22.8296, 45.1038, -78.8366, -35.5866, 17.6709, -129.3666, -0.4448, 0.0031, 0.3355, -0.8304, -0.0173, -0.0049, -0.0128, 0.0000, 0.0000, 0.0000, 0.0000
1, 0.7100, 142, 0.3215, 0.5583, -0.7647, 6.9821, 3.3247, -5.1672, -22.8296, 45.1038, -78.8366, -35.5615, 17.6694, -129.3988, -0.4445, 0.0033, 0.3353, -0.8306, -0.0180, -0.0041, -0.0104, 0.0000, 0.0000, 0.0000, 0.0000
1, 0.7150, 143, 0.3177, 0.5573, -0.7659, 7.6987, 3.4096, -5.7349, -23.7650, 45.7469, -79.3628, -35.5336, 17.6666, -129.4337, -0.4443, 0.0034, 0.3351, -0.8309, -0.0142, -0.0034, -0.0094, 0.0000, 0.0000, 0.0000, 0.0000
1, 0.7200, 144, 0.3116, 0.5590, -0.7694, 8.1282, 3.6291, -6.3125, -23.7650, 45.7469, -79.3628, -35.5045, 17.6630, -129.4717, -0.4440, 0.0036, 0.3349, -0.8311, -0.0081, -0.0055, -0.0062, 0.0000, 0.0000, 0.0000, 0.0000
1, 0.7250, 145, 0.3068, 0.5592, -0.7697, 8.6636, 3.8448, -6.6771, -23.7358, 45.3669, -79.6551, -35.4734, 17.6593, -129.5120, -0.4437, 0.0039, 0.3346, -0.8314, -0.0034, -0.0061, -0.0063, 0.0000, 0.0000, 0.0000, 0.0000
1, 0.7300, 146, 0.3179, 0.5631, -0.7694, 8.9880, 3.6453, -6.8055, -23.7358, 45.3669, -79.6551, -35.4441, 17.6582, -129.5528, -0.4434, 0.0041, 0.3344, -0.8316, -0.0146, -0.0104, -0.0068, 0.0000, 0.0000, 0.0000, 0.0000
1, 0.7350, 147, 0.3204, 0.5595, -0.7688, 8.6742, 2.9969, -6.8523, -23.7358, 45.3669, -79.6551, -35.4124, 17.6506, -129.5912, -0.4431, 0.0043, 0.3342, -0.8319, -0.0171, -0.0072, -0.0078, 0.0000, 0.0000, 0.0000, 0.0000
1, 0.7400, 148, 0.3167, 0.5526, -0.7712, 8.6081, 2.6964, -7.1690, -23.2680, 45.4545, -79.3335, -35.3812, 17.6408, -129.6301, -0.4428, 0.0044, 0.3339, -0.8321, -0.0136, -0.0008, -0.0057, 0.0000, 0.0000, 0.0000, 0.0000
1, 0.7450, 149, 0.3207, 0.5540, -0.7667, 8.7212, 2.2224, -7.2703, -23.2680, 45.4545, -79.3335, -35.3490, 17.6288, -129.6680, -0.4425, 0.0046, 0.3336, -0.8324, -0.0178, -0.0025, -0.0106, 0.0000, 0.0000, 0.0000, 0.0000
1, 0.7500, 150, 0.3222, 0.5620, -0.7728, 9.2250, 1.9566, -7.4273, -23.3557, 44.7238, -79.2458, -35.3143, 17.6153, -129.7057, -0.4422, 0.0047, 0.3333, -0.8327, -0.0195, -0.0110, -0.0048, 0.0000, 0.0000, 0.0000, 0.0000
1, 0.7550, 151, 0.3095, 0.5559, -0.7813, 8.7349, 0.8895, -7.0621, -23.3557, 44.7238, -79.2458, -35.2806, 17.5986, -129.7386, -0.4419, 0.0048, 0.3330, -0.8329, -0.0071, -0.0052, 0.0033, 0.0000, 0.0000, 0.0000, 0.0000
1, 0.7600, 152, 0.3006, 0.5433, -0.7764, 8.1349, 0.3081, -7.1539, -23.3557, 44.7238, -79.2458, -35.2495, 17.5792, -129.7702, -0.4417, 0.0049, 0.3327, -0.8332, 0.0016, 0.0069, -0.0020, 0.0000, 0.0000, 0.0000, 0.0000
1, 0.7650, 153, 0.3288, 0.5635, -0.7702, 8.3890, -0.3130, -6.6921, -23.3850, 45.5422, -79.2751, -35.2159, 17.5586, -129.7979, -0.4414, 0.0049, 0.3324, -0.8334, -0.0270, -0.0136, -0.0087, 0.0000, 0.0000, 0.0000, 0.0000
1, 0.7700, 154, 0.3252, 0.5598, -0.7762, 7.8613, -1.1390, -6.4676, -23.3850, 45.5422, -79.2751, -35.1839, 17.5353, -129.8222, -0.4412, 0.0049, 0.3321, -0.8337, -0.0238, -0.0102, -0.0030, 0.0000, 0.0000, 0.0000, 0.0000
1, 0.7750, 155, 0.3147, 0.5459, -0.7742, 8.0098, -1.2597, -7.1603, -23.2096, 44.5484, -79.8305, -35.1520, 17.5095, -129.8491, -0.4409, 0.0049, 0.3318, -0.8339, -0.0138, 0.0033, -0.0054, 0.0000, 0.0000, 0.0000, 0.0000
1, 0.7800, 156, 0.3119, 0.5608, -0.7806, 8.1948, -1.7667, -7.2940, -23.2096, 44.5484, -79.8305, -35.1226, 17.4824, -129.8759, -0.4407, 0.0049, 0.3315, -0.8342, -0.0113, -0.0120, 0.0005, 0.0000, 0.0000, 0.0000, 0.0000
1, 0.7850, 157, 0.3122, 0.5604, -0.7767, 8.3073, -1.8884, -7.9530, -23.2096, 44.5484, -79.8305, -35.0896, 17.4518, -129.9043, -0.4404, 0.0049, 0.3312, -0.8345, -0.0122, -0.0119, -0.0038, 0.0000, 0.0000, 0.0000, 0.0000
1, 0.7900, 158, 0.3227, 0.5492, -0.7750, 7.7066, -2.6496, -7.5915, -23.5604, 44.9576, -79.6843, -35.0584, 17.4192, -129.9289, -0.4402, 0.0048, 0.3309, -0.8347, -0.0232, -0.0010, -0.0059, 0.0000, 0.0000, 0.0000, 0.0000
1, 0.7950, 159, 0.3085, 0.5507, -0.7940, 6.7553, -3.7804, -7.5916, -23.5604, 44.9576, -79.6843, -35.0310, 17.3819, -129.9501, -0.4400, 0.0047, 0.3305, -0.8350, -0.0096, -0.0028, 0.0126, 0.0000, 0.0000, 0.0000, 0.0000
1, 0.8000, 160, 0.2928, 0.5405, -0.7964, 4.9142, -5.1906, -7.5539, -23.3850, 44.7822, -79.5674, -35.0115, 17.3390, -129.9669, -0.4398, 0.0045, 0.3303, -0.8352, 0.0054, 0.0072, 0.0147, 0.0000, 0.0000, 0.0000, 0.0000
1, 0.8050, 161, 0.2944, 0.5463, -0.7827, 3.9922, -5.7414, -7.5872, -23.3850, 44.7822, -79.5674, -34.9960, 17.2937, -129.9822, -0.4396, 0.0043, 0.3300, -0.8354, 0.0030, 0.0013, 0.0006, 0.0000, 0.0000, 0.0000, 0.0000
1, 0.8100, 162, 0.3255, 0.5628, -0.7755, 4.5640, -5.6646, -7.8111, -23.3850, 44.7822, -79.5674, -34.9781, 17.2481, -129.9987, -0.4394, 0.0040, 0.3297, -0.8356, -0.0288, -0.0153, -0.0069, 0.0000, 0.0000, 0.0000, 0.0000
1, 0.8150, 163, 0.3103, 0.5556, -0.7778, 4.4982, -5.8932, -8.3021, -23.0927, 44.3438, -79.2751, -34.9609, 17.2002, -130.0167, -0.4392, 0.0038, 0.3295, -0.8358, -0.0144, -0.0082, -0.0050, 0.0000, 0.0000, 0.0000, 0.0000
1, 0.8200, 164, 0.2995, 0.5454, -0.7816, 4.6818, -6.0863, -8.7844, -23.0927, 44.3438, -79.2751, -34.9433, 17.1501, -130.0361, -0.4389, 0.0035, 0.3292, -0.8361, -0.0044, 0.0019, -0.0016, 0.0000, 0.0000, 0.0000, 0.0000
1, 0.8250, 165, 0.3006, 0.5588, -0.7776, 5.6118, -6.0029, -9.2049, -23.7650, 45.2499, -78.6904, -34.9215, 17.0991, -130.0576, -0.4387, 0.0033, 0.3288, -0.8363, -0.0064, -0.0116, -0.0059, 0.0000, 0.0000, 0.0000, 0.0000
1, 0.8300, 166, 0.3000, 0.5536, -0.7753, 6.6830, -5.6055, -9.9341, -23.7650, 45.2499, -78.6904, -34.8976, 17.0502, -130.0838, -0.4384, 0.0031, 0.3285, -0.8366, -0.0066, -0.0066, -0.0088, 0.0000, 0.0000, 0.0000, 0.0000
1, 0.8350, 167, 0.3047, 0.5532, -0.7764, 6.8264, -5.6024, -10.0337, -23.7065, 45.4545, -79.3628, -34.8712, 16.9985, -130.1100, -0.4381, 0.0029, 0.3282, -0.8369, -0.0122, -0.0064, -0.0081, 0.0000, 0.0000, 0.0000, 0.0000
1, 0.8400, 168, 0.2945, 0.5479, -0.7851, 7.5795, -5.8689, -10.0772, -23.7065, 45.4545, -79.3628, -34.8408, 16.9456, -130.1357, -0.4378, 0.0027, 0.3278, -0.8372, -0.0028, -0.0013, 0.0001, 0.0000, 0.0000, 0.0000, 0.0000
1, 0.8450, 169, 0.3131, 0.5470, -0.7776, 7.3740, -6.1933, -10.9223, -23.7065, 45.4545, -79.3628, -34.8122, 16.8890, -130.1641, -0.4375, 0.0024, 0.3274, -0.8375, -0.0224, -0.0007, -0.0079, 0.0000, 0.0000, 0.0000, 0.0000
1, 0.8500, 170, 0.3326, 0.5601, -0.7739, 8.3704, -5.9146, -10.8867, -23.3265, 44.4315, -79.3920, -34.7788, 16.8337, -130.1932, -0.4372, 0.0022, 0.3270, -0.8378, -0.0428, -0.0141, -0.0121, 0.0000, 0.0000, 0.0000, 0.0000
1, 0.8550, 171, 0.3043, 0.5548, -0.7784, 8.9565, -6.7082, -11.8439, -23.3265, 44.4315, -79.3920, -34.7429, 16.7724, -130.2240, -0.4369, 0.0020, 0.3265, -0.8382, -0.0154, -0.0091, -0.0082, 0.0000, 0.0000, 0.0000, 0.0000
1, 0.8600, 172, 0.3031, 0.5529, -0.7701, 9.1833, -7.3706, -12.6741, -23.8527, 44.7530, -79.5381, -34.7064, 16.7060, -130.2565, -0.4365, 0.0017, 0.3260, -0.8385, -0.0154, -0.0075, -0.0171, 0.0000, 0.0000, 0.0000, 0.0000
1, 0.8650, 173, 0.3185, 0.5646, -0.7735, 9.9747, -7.8397, -12.7862, -23.8527, 44.7530, -79.5381, -34.6656, 16.6374, -130.2881, -0.4361, 0.0014, 0.3255, -0.8389, -0.0319, -0.0195, -0.0144, 0.0000, 0.0000, 0.0000, 0.0000
1, 0.8700, 174, 0.3125, 0.5532, -0.7760, 10.3435, -8.4331, -13.6113, -23.8527, 44.7530, -79.5381, -34.6234, 16.5640, -130.3215, -0.4358, 0.0011, 0.3250, -0.8393, -0.0271, -0.0085, -0.0126, 0.0000, 0.0000, 0.0000, 0.0000
1, 0.8750, 175, 0.2992, 0.5457, -0.7785, 10.9293, -9.0860, -14.7777, -24.2327, 44.0514, -79.0704, -34.5791, 16.4846, -130.3580, -0.4353, 0.0008, 0.3244, -0.8398, -0.0151, -0.0014, -0.0108, 0.0000, 0.0000, 0.0000, 0.0000
1, 0.8800, 176, 0.3076, 0.5535, -0.7841, 12.0077, -9.3713, -15.4377, -24.2327, 44.0514, -79.0704, -34.5316, 16.4054, -130.3968, -0.4349, 0.0005, 0.3238, -0.8402, -0.0249, -0.0096, -0.0060, 0.0000, 0.0000, 0.0000, 0.0000
1, 0.8850, 177, 0.3000, 0.5499, -0.7827, 11.8764, -10.0751, -16.0364, -24.0573, 45.1038, -79.5381, -34.4833, 16.3184, -130.4359, -0.4345, 0.0001, 0.3232, -0.8407, -0.0186, -0.0065, -0.0082, 0.0000, 0.0000, 0.0000, 0.0000
1, 0.8900, 178, 0.3059, 0.5466, -0.7749, 11.9959, -10.7389, -16.8354, -24.0573, 45.1038, -79.5381, -34.4347, 16.2265, -130.4766, -0.4340, -0.0003, 0.3226, -0.8412, -0.0261, -0.0036, -0.0168, 0.0000, 0.0000, 0.0000, 0.0000
1, 0.8950, 179, 0.3386, 0.5394, -0.7703, 11.5523, -12.2630, -17.4113, -24.0573, 45.1038, -79.5381, -34.3877, 16.1268, -130.5153, -0.4335, -0.0008, 0.3219, -0.8417, -0.0604, 0.0032, -0.0222, 0.0000, 0.0000, 0.0000, 0.0000
1, 0.9000, 180, 0.3474, 0.5384, -0.7728, 11.1825, -13.7075, -18.5078, -24.8173, 43.9053, -79.5674, -34.3427, 16.0180, -130.5545, -0.4331, -0.0014, 0.3212, -0.8422, -0.0710, 0.0039, -0.0206, 0.0000, 0.0000, 0.0000, 0.0000
1, 0.9050, 181, 0.3301, 0.5288, -0.7750, 11.4257, -15.2321, -20.4550, -24.8173, 43.9053, -79.5674, -34.2974, 15.8974, -130.5977, -0.4325, -0.0020, 0.3205, -0.8427, -0.0557, 0.0132, -0.0193, 0.0000, 0.0000, 0.0000, 0.0000
1, 0.9100, 182, 0.3220, 0.5307, -0.7812, 11.6664, -16.6242, -22.2276, -24.4665, 44.1391, -80.0351, -34.2519, 15.7661, -130.6445, -0.4319, -0.0027, 0.3198, -0.8433, -0.0497, 0.0111, -0.0140, 0.0000, 0.0000, 0.0000, 0.0000
1, 0.9150, 183, 0.3237, 0.5334, -0.7829, 11.2263, -18.2424, -23.1873, -24.4665, 44.1391, -80.0351, -34.2082, 15.6255, -130.6908, -0.4313, -0.0035, 0.3190, -0.8439, -0.0538, 0.0081, -0.0133, 0.0000, 0.0000, 0.0000, 0.0000
1, 0.9200, 184, 0.3430, 0.5287, -0.7833, 10.5760, -20.2018, -24.1897, -24.4665, 44.1391, -80.0351, -34.1674, 15.4740, -130.7357, -0.4307, -0.0043, 0.3182, -0.8445, -0.0755, 0.0126, -0.0139, 0.0000, 0.0000, 0.0000, 0.0000
1, 0.9250, 185, 0.3622, 0.5321, -0.7888, 10.1062, -22.2594, -25.3254, -24.6127, 44.1684, -80.2689, -34.1285, 15.3108, -130.7796, -0.4301, -0.0053, 0.3174, -0.8451, -0.0975, 0.0091, -0.0094, 0.0000, 0.0000, 0.0000, 0.0000
1, 0.9300, 186, 0.3610, 0.5298, -0.7975, 9.6401, -24.1262, -27.4376, -24.6127, 44.1684, -80.2689, -34.0919, 15.1415, -130.8266, -0.4294, -0.0064, 0.3166, -0.8457, -0.0991, 0.0113, -0.0016, 0.0000, 0.0000, 0.0000, 0.0000
1, 0.9350, 187, 0.3697, 0.5273, -0.8073, 9.1320, -25.3075, -29.7598, -24.8758, 44.1976, -79.8305, -34.0604, 14.9534, -130.8808, -0.4287, -0.0075, 0.3158, -0.8464, -0.1108, 0.0138, 0.0072, 0.0000, 0.0000, 0.0000, 0.0000
1, 0.9400, 188, 0.3808, 0.5138, -0.8247, 8.0541, -26.8773, -31.6142, -24.8758, 44.1976, -79.8305, -34.0349, 14.7535, -130.9385, -0.4279, -0.0088, 0.3150, -0.8471, -0.1252, 0.0275, 0.0236, 0.0000, 0.0000, 0.0000, 0.0000
1, 0.9450, 189, 0.3888, 0.5042, -0.8442, 6.5433, -28.1823, -33.2393, -25.1096, 43.4961, -80.4735, -34.0176, 14.5437, -130.9994, -0.4271, -0.0102, 0.3142, -0.8478, -0.1368, 0.0373, 0.0422, 0.0000, 0.0000, 0.0000, 0.0000
1, 0.9500, 190, 0.3877, 0.5058, -0.8596, 4.6037, -29.0310, -35.6466, -25.1096, 43.4961, -80.4735, -34.0117, 14.3237, -131.0681, -0.4261, -0.0117, 0.3135, -0.8485, -0.1393, 0.0361, 0.0567, 0.0000, 0.0000, 0.0000, 0.0000
1, 0.9550, 191, 0.4048, 0.4846, -0.8907, 1.5615, -30.3330, -37.9190, -25.1096, 43.4961, -80.4735, -34.0222, 14.0919, -131.1427, -0.4252, -0.0133, 0.3129, -0.8492, -0.1603, 0.0579, 0.0870, 0.0000, 0.0000, 0.0000, 0.0000
1, 0.9600, 192, 0.4311, 0.4569, -0.9532, -2.7024, -31.2462, -39.6410, -25.9866, 42.8530, -79.3920, -34.0548, 13.8515, -131.2218, -0.4241, -0.0150, 0.3124, -0.8499, -0.1906, 0.0865, 0.1489, 0.0000, 0.0000, 0.0000, 0.0000
1, 0.9650, 193, 0.4212, 0.4387, -1.0259, -7.9980, -32.0112, -42.2715, -25.9866, 42.8530, -79.3920, -34.1156, 13.6005, -131.3097, -0.4230, -0.0169, 0.3120, -0.8506, -0.1849, 0.1060, 0.2213, 0.0000, 0.0000, 0.0000, 0.0000
1, 0.9700, 194, 0.3840, 0.4684, -1.0814, -14.8373, -31.7898, -45.3391, -26.1327, 43.4084, -79.6258, -34.2134, 13.3417, -131.4108, -0.4217, -0.0190, 0.3120, -0.8512, -0.1521, 0.0782, 0.2767, 0.0000, 0.0000, 0.0000, 0.0000
1, 0.9750, 195, 0.3716, 0.5165, -1.1396, -24.1042, -31.6905, -48.2486, -26.1327, 43.4084, -79.6258, -34.3597, 13.0749, -131.5238, -0.4203, -0.0213, 0.3122, -0.8517, -0.1442, 0.0326, 0.3353, 0.0000, 0.0000, 0.0000, 0.0000
1, 0.9800, 196, 0.3335, 0.5783, -1.2068, -35.0045, -32.1732, -51.5654, -26.1327, 43.4084, -79.6258, -34.5592, 12.7965, -131.6480, -0.4188, -0.0238, 0.3129, -0.8521, -0.1108, -0.0260, 0.4034, 0.0000, 0.0000, 0.0000, 0.0000
1, 0.9850, 197, 0.2363, 0.6838, -1.2587, -48.3617, -32.6491, -56.0157, -26.2496, 43.4961, -78.8951, -34.8318, 12.5028, -131.7888, -0.4171, -0.0267, 0.3140, -0.8525, -0.0185, -0.1274, 0.4568, 0.0000, 0.0000, 0.0000, 0.0000
1, 0.9900, 198, 0.1309, 0.8115, -1.2622, -64.6986, -35.0250, -60.1901, -26.2496, 43.4961, -78.8951, -35.1873, 12.1867, -131.9383, -0.4153, -0.0300, 0.3157, -0.8526, 0.0815, -0.2498, 0.4627, 0.0000, 0.0000, 0.0000, 0.0000
1, 0.9950, 199, 0.0333, 0.8559, -1.2932, -84.9267, -34.8962, -63.2428, -27.4773, 43.5545, -79.0120, -35.6453, 11.8613, -132.0984, -0.4133, -0.0337, 0.3182, -0.8525, 0.1737, -0.2875, 0.4969, 0.0000, 0.0000, 0.0000, 0.0000
1, 1.0000, 200, 0.0000, 0.8579, -1.2898, -106.0281, -30.9199, -64.8562, -27.4773, 43.5545, -79.0120, -36.2110, 11.5459, -132.2740, -0.4112, -0.0377, 0.3214, -0.8522, 0.2014, -0.2813, 0.4980, 0.0000, 0.0000, 0.0000, 0.0000
1, 1.0050, 201, 0.2042, 0.8228, -1.3489, -128.0039, -26.1264, -65.1038, -27.4773, 43.5545, -79.0120, -36.8881, 11.2471, -132.4614, -0.4089, -0.0418, 0.3256, -0.8515, -0.0079, -0.2367, 0.5629, 0.0000, 0.0000, 0.0000, 0.0000
1, 1.0100, 202, 0.4120, 0.8753, -1.3569, -146.7855, -34.8086, -66.6512, -27.3312, 44.5776, -78.6027, -37.6533, 10.9068, -132.6242, -0.4066, -0.0467, 0.3303, -0.8505, -0.2213, -0.2783, 0.5776, 0.0000, 0.0000, 0.0000, 0.0000
1, 1.0150, 203, 0.1959, 0.8617, -1.3394, -166.4467, -37.9800, -74.6075, -27.3312, 44.5776, -78.6027, -38.5189, 10.5272, -132.8038, -0.4040, -0.0521, 0.3357, -0.8493, -0.0116, -0.2526, 0.5680, 0.0000, 0.0000, 0.0000, 0.0000
1, 1.0200, 204, 0.2602, 0.5424, -1.4205, -187.2293, -28.2710, -86.3204, -27.7697, 44.1684, -77.7550, -39.5000, 10.1457, -133.0544, -0.4008, -0.0577, 0.3419, -0.8480, -0.0824, 0.0802, 0.6584, 0.0000, 0.0000, 0.0000, 0.0000
1, 1.0250, 205, 0.6090, 0.2372, -1.4681, -200.6122, -25.4584, -86.7552, -27.7697, 44.1684, -77.7550, -40.5470, 9.7693, -133.3085, -0.3975, -0.0635, 0.3486, -0.8464, -0.4377, 0.3998, 0.7165, 0.0000, 0.0000, 0.0000, 0.0000
1, 1.0300, 206, 0.6435, 0.2692, -1.3388, -208.8010, -23.5052, -88.3681, -27.7697, 44.1684, -77.7550, -41.6295, 9.3933, -133.5672, -0.3940, -0.0693, 0.3556, -0.8447, -0.4787, 0.3825, 0.5985, 0.0000, 0.0000, 0.0000, 0.0000
1, 1.0350, 207, 0.4949, 0.5530, -1.2266, -218.2611, -20.7315, -93.7930, -28.6174, 43.4376, -76.5273, -42.7658, 9.0015, -133.8486, -0.3902, -0.0752, 0.3630, -0.8428, -0.3367, 0.1138, 0.4984, 0.0000, 0.0000, 0.0000, 0.0000
1, 1.0400, 208, 0.2914, 0.7832, -1.1443, -228.6680, -18.2076, -95.7279, -28.6174, 43.4376, -76.5273, -43.9533, 8.6067, -134.1375, -0.3862, -0.0813, 0.3708, -0.8407, -0.1401, -0.1008, 0.4291, 0.0000, 0.0000, 0.0000, 0.0000
1, 1.0450, 209, 0.2654, 0.8306, -1.1039, -239.5867, -16.0128, -95.1342, -29.0851, 44.5776, -75.4458, -45.1930, 8.2159, -134.4233, -0.3821, -0.0875, 0.3790, -0.8383, -0.1208, -0.1324, 0.4028, 0.0000, 0.0000, 0.0000, 0.0000
1, 1.0500, 210, 0.3109, 0.7656, -1.0807, -249.1254, -13.8534, -92.3985, -29.0851, 44.5776, -75.4458, -46.4770, 7.8363, -134.6982, -0.3779, -0.0937, 0.3875, -0.8356, -0.1730, -0.0513, 0.3946, 0.0000, 0.0000, 0.0000, 0.0000
1, 1.0550, 211, 0.3401, 0.7166, -1.0274, -256.4146, -11.0399, -90.8733, -29.5235, 46.1561, -74.1596, -47.7952, 7.4657, -134.9693, -0.3737, -0.0998, 0.3962, -0.8327, -0.2086, 0.0138, 0.3573, 0.0000, 0.0000, 0.0000, 0.0000
1, 1.0600, 212, 0.3292, 0.7141, -0.9773, -259.7643, -9.2893, -89.3497, -29.5235, 46.1561, -74.1596, -49.1274, 7.1005, -135.2329, -0.3695, -0.1059, 0.4051, -0.8296, -0.2040, 0.0323, 0.3238, 0.0000, 0.0000, 0.0000, 0.0000
1, 1.0650, 213, 0.2596, 0.7457, -0.9746, -264.7859, -13.7789, -83.2178, -29.5235, 46.1561, -74.1596, -50.4776, 6.7383, -135.4504, -0.3655, -0.1122, 0.4140, -0.8261, -0.1407, 0.0164, 0.3382, 0.0000, 0.0000, 0.0000, 0.0000
1, 1.0700, 214, 0.1456, 0.8136, -0.9416, -280.8055, -27.4838, -71.7646, -30.8682, 44.2853, -73.5750, -51.8952, 6.3728, -135.5691, -0.3620, -0.1189, 0.4233, -0.8220, -0.0330, -0.0356, 0.3235, 0.0000, 0.0000, 0.0000, 0.0000
1, 1.0750, 215, -0.0222, 1.0440, -0.8203, -304.5854, -40.7916, -59.0502, -30.8682, 44.2853, -73.5750, -53.4199, 6.0145, -135.5862, -0.3590, -0.1263, 0.4333, -0.8170, 0.1285, -0.2496, 0.2223, 0.0000, 0.0000, 0.0000, 0.0000
1, 1.0800, 216, 0.0089, 1.3234, -0.8127, -312.0350, -32.3790, -53.2670, -30.7512, 45.3376, -71.7919, -54.9832, 5.7033, -135.6110, -0.3559, -0.1333, 0.4436, -0.8117, 0.0917, -0.5124, 0.2363, 0.0000, 0.0000, 0.0000, 0.0000
1, 1.0850, 217, 0.2978, 1.4733, -0.7407, -286.9023, -20.1870, -39.9071, -30.7512, 45.3376, -71.7919, -56.4206, 5.4816, -135.6403, -0.3532, -0.1392, 0.4531, -0.8065, -0.2014, -0.6474, 0.1852, 0.0000, 0.0000, 0.0000, 0.0000
1, 1.0900, 218, 0.3038, 1.5049, -0.6470, -248.4170, -3.2780, -40.7927, -30.7512, 45.3376, -71.7919, -57.6718, 5.3013, -135.7378, -0.3503, -0.1440, 0.4616, -0.8022, -0.2106, -0.6664, 0.1101, 0.0000, 0.0000, 0.0000, 0.0000
1, 1.0950, 219, 0.1711, 1.5202, -0.4449, -208.5606, 13.9463, -56.2831, -31.1312, 45.9515, -70.8857, -58.7335, 5.0987, -135.9462, -0.3467, -0.1478, 0.4687, -0.7989, -0.0813, -0.6712, -0.0758, 0.0000, 0.0000, 0.0000, 0.0000
1, 1.1000, 220, 0.2358, 1.6479, -0.2990, -163.3269, 24.4121, -62.8695, -31.1312, 45.9515, -70.8857, -59.5733, 4.8913, -136.2131, -0.3430, -0.1507, 0.4743, -0.7967, -0.1496, -0.7906, -0.2085, 0.0000, 0.0000, 0.0000, 0.0000
1, 1.1050, 221, 0.3880, 1.6489, -0.2885, -123.9028, 29.3671, -66.8771, -31.0436, 45.9515, -70.6811, -60.2175, 4.6757, -136.5089, -0.3392, -0.1529, 0.4786, -0.7953, -0.3055, -0.7852, -0.2088, 0.0000, 0.0000, 0.0000, 0.0000
1, 1.1100, 222, 0.2923, 1.5437, -0.2583, -95.7241, 27.1128, -63.8251, -31.0436, 45.9515, -70.6811, -60.7181, 4.4648, -136.7850, -0.3358, -0.1547, 0.4819, -0.7944, -0.2135, -0.6752, -0.2311, 0.0000, 0.0000, 0.0000, 0.0000
1, 1.1150, 223, 0.0110, 1.5190, -0.1707, -71.5205, 17.3689, -50.9446, -31.0436, 45.9515, -70.6811, -61.0910, 4.2845, -136.9853, -0.3332, -0.1562, 0.4843, -0.7937, 0.0645, -0.6468, -0.3126, 0.0000, 0.0000, 0.0000, 0.0000
1, 1.1200, 224, -0.1600, 1.5114, -0.2060, -49.8380, 0.5205, -33.1381, -31.3943, 46.9161, -70.4180, -61.3463, 4.1405, -137.0676, -0.3317, -0.1576, 0.4858, -0.7932, 0.2328, -0.6366, -0.2731, 0.0000, 0.0000, 0.0000, 0.0000
1, 1.1250, 225, -0.2636, 1.4497, -0.3122, -31.9481, -2.4003, -16.2853, -31.3943, 46.9161, -70.4180, -61.5081, 4.0633, -137.0961, -0.3310, -0.1585, 0.4868, -0.7927, 0.3347, -0.5733, -0.1642, 0.0000, 0.0000, 0.0000, 0.0000
1, 1.1300, 226, -0.4043, 1.1637, -0.2891, -23.2866, 11.4486, -15.8917, -31.1020, 46.0099, -70.9149, -61.6469, 3.9916, -137.1862, -0.3299, -0.1591, 0.4877, -0.7925, 0.4743, -0.2862, -0.1853, 0.0000, 0.0000, 0.0000, 0.0000
1, 1.1350, 227, -0.3715, 0.8782, -0.1794, -23.3219, 25.8427, -24.8763, -31.1020, 46.0099, -70.9149, -61.7755, 3.9433, -137.3593, -0.3283, -0.1590, 0.4887, -0.7925, 0.4405, 0.0005, -0.2929, 0.0000, 0.0000, 0.0000, 0.0000
1, 1.1400, 228, -0.2014, 0.8321, -0.0766, -22.4405, 31.9737, -34.2925, -31.1020, 46.0099, -70.9149, -61.9029, 3.8676, -137.5817, -0.3263, -0.1590, 0.4897, -0.7928, 0.2692, 0.0478, -0.3938, 0.0000, 0.0000, 0.0000, 0.0000
1, 1.1450, 229, -0.0921, 0.9092, -0.0451, -20.2538, 30.1485, -44.0216, -31.1897, 45.8930, -70.8857, -62.0199, 3.7442, -137.8187, -0.3240, -0.1592, 0.4905, -0.7932, 0.1580, -0.0283, -0.4235, 0.0000, 0.0000, 0.0000, 0.0000
1, 1.1500, 230, -0.2297, 0.9680, -0.0891, -17.7497, 28.2054, -52.9023, -31.1897, 45.8930, -70.8857, -62.1245, 3.5765, -138.0677, -0.3214, -0.1596, 0.4911, -0.7937, 0.2928, -0.0860, -0.3779, 0.0000, 0.0000, 0.0000, 0.0000
1, 1.1550, 231, -0.4117, 0.9436, -0.1406, -16.2228, 28.9160, -58.6740, -31.5113, 46.2146, -71.0319, -62.2217, 3.3846, -138.3330, -0.3186, -0.1601, 0.4917, -0.7944, 0.4715, -0.0607, -0.3249, 0.0000, 0.0000, 0.0000, 0.0000
1, 1.1600, 232, -0.3634, 0.8872, -0.1515, -13.7114, 31.9673, -60.3956, -31.5113, 46.2146, -71.0319, -62.3065, 3.1917, -138.6155, -0.3158, -0.1604, 0.4922, -0.7952, 0.4199, -0.0033, -0.3129, 0.0000, 0.0000, 0.0000, 0.0000
1, 1.1650, 233, -0.1729, 0.8669, -0.1477, -8.8878, 34.4018, -59.5590, -31.5405, 45.8053, -71.3534, -62.3667, 3.0078, -138.9065, -0.3129, -0.1606, 0.4926, -0.7960, 0.2262, 0.0176, -0.3157, 0.0000, 0.0000, 0.0000, 0.0000
1, 1.1700, 234, -0.0757, 0.8585, -0.1603, -2.2099, 34.0631, -59.0791, -31.5405, 45.8053, -71.3534, -62.3924, 2.8250, -139.1947, -0.3101, -0.1608, 0.4927, -0.7970, 0.1258, 0.0265, -0.3026, 0.0000, 0.0000, 0.0000, 0.0000
1, 1.1750, 235, -0.0983, 0.8229, -0.1526, 4.5079, 30.2527, -58.7417, -31.5405, 45.8053, -71.3534, -62.3827, 2.6348, -139.4652, -0.3074, -0.1609, 0.4925, -0.7981, 0.1451, 0.0622, -0.3104, 0.0000, 0.0000, 0.0000, 0.0000
1, 1.1800, 236, -0.1188, 0.7726, -0.1531, 10.3359, 24.9586, -56.1698, -31.5989, 44.5484, -71.9965, -62.3541, 2.4354, -139.7065, -0.3049, -0.1612, 0.4922, -0.7993, 0.1622, 0.1125, -0.3104, 0.0000, 0.0000, 0.0000, 0.0000
1, 1.1850, 237, -0.1006, 0.7193, -0.1448, 15.2956, 19.5464, -51.5005, -31.5989, 44.5484, -71.9965, -62.2860, 2.2528, -139.9128, -0.3028, -0.1614, 0.4915, -0.8004, 0.1407, 0.1654, -0.3196, 0.0000, 0.0000, 0.0000, 0.0000
1, 1.1900, 238, -0.0829, 0.6722, -0.1483, 19.2486, 14.3504, -46.0990, -30.9851, 44.4607, -72.6688, -62.1962, 2.0822, -140.0838, -0.3011, -0.1616, 0.4907, -0.8015, 0.1199, 0.2119, -0.3175, 0.0000, 0.0000, 0.0000, 0.0000
1, 1.1950, 239, -0.0876, 0.6299, -0.1512, 22.1577, 9.8967, -40.6985, -30.9851, 44.4607, -72.6688, -62.0903, 1.9254, -140.2227, -0.2996, -0.1619, 0.4898, -0.8026, 0.1219, 0.2535, -0.3162, 0.0000, 0.0000, 0.0000, 0.0000
1, 1.2000, 240, -0.0906, 0.5943, -0.1569, 25.3755, 6.5336, -35.2159, -30.9851, 44.4607, -72.6688, -61.9670, 1.7852, -140.3342, -0.2984, -0.1621, 0.4887, -0.8036, 0.1223, 0.2881, -0.3124, 0.0000, 0.0000, 0.0000, 0.0000
1, 1.2050, 241, -0.0834, 0.5645, -0.1537, 28.7951, 3.8363, -28.9229, -30.8097, 44.0807, -72.8442, -61.8256, 1.6667, -140.4193, -0.2975, -0.1622, 0.4876, -0.8047, 0.1130, 0.3170, -0.3177, 0.0000, 0.0000, 0.0000, 0.0000
1, 1.2100, 242, -0.0616, 0.5362, -0.1501, 32.5303, 1.4395, -22.2345, -30.8097, 44.0807, -72.8442, -61.6646, 1.5722, -140.4783, -0.2969, -0.1622, 0.4863, -0.8057, 0.0894, 0.3440, -0.3237, 0.0000, 0.0000, 0.0000, 0.0000
1, 1.2150, 243, -0.0474, 0.4883, -0.1526, 35.5928, -0.9063, -16.5817, -30.9851, 43.8176, -73.4581, -61.4876, 1.4971, -140.5137, -0.2966, -0.1621, 0.4849, -0.8066, 0.0738, 0.3904, -0.3239, 0.0000, 0.0000, 0.0000, 0.0000
1, 1.2200, 244, -0.0617, 0.4151, -0.1546, 37.3041, -3.3124, -11.7443, -30.9851, 43.8176, -73.4581, -61.3015, 1.4376, -140.5273, -0.2965, -0.1620, 0.4835, -0.8075, 0.0870, 0.4622, -0.3248, 0.0000, 0.0000, 0.0000, 0.0000
1, 1.2250, 245, -0.1087, 0.3389, -0.1453, 36.8294, -4.6641, -7.5411, -30.9851, 43.8176, -73.4581, -61.1173, 1.3933, -140.5250, -0.2966, -0.1618, 0.4821, -0.8084, 0.1332, 0.5369, -0.3369, 0.0000, 0.0000, 0.0000, 0.0000
1, 1.2300, 246, -0.1475, 0.2702, -0.1509, 36.0149, -4.0645, -3.9057, -31.0728, 43.8176, -73.0196, -60.9368, 1.3579, -140.5172, -0.2968, -0.1616, 0.4807, -0.8092, 0.1714, 0.6040, -0.3340, 0.0000, 0.0000, 0.0000, 0.0000
1, 1.2350, 247, -0.1530, 0.2649, -0.1640, 33.4576, -4.0911, -0.2281, -31.0728, 43.8176, -73.0196, -60.7691, 1.3469, -140.4998, -0.2971, -0.1614, 0.4794, -0.8098, 0.1766, 0.6079, -0.3235, 0.0000, 0.0000, 0.0000, 0.0000
1, 1.2400, 248, -0.1469, 0.2790, -0.1746, 30.4426, -4.5581, 3.1886, -31.5989, 42.1806, -73.7796, -60.6162, 1.3497, -140.4721, -0.2975, -0.1611, 0.4783, -0.8104, 0.1704, 0.5924, -0.3153, 0.0000, 0.0000, 0.0000, 0.0000
1, 1.2450, 249, -0.1341, 0.3058, -0.1767, 28.8564, -4.4110, 5.4005, -31.5989, 42.1806, -73.7796, -60.4711, 1.3624, -140.4396, -0.2980, -0.1607, 0.4773, -0.8109, 0.1578, 0.5644, -0.3155, 0.0000, 0.0000, 0.0000, 0.0000
1, 1.2500, 250, -0.1155, 0.3535, -0.1779, 29.8605, -2.7438, 7.4618, -31.5989, 42.1806, -73.7796, -60.3211, 1.3880, -140.4093, -0.2985, -0.1603, 0.4762, -0.8114, 0.1396, 0.5154, -0.3165, 0.0000, 0.0000, 0.0000, 0.0000
1, 1.2550, 251, -0.1102, 0.3929, -0.1809, 35.3311, -0.6083, 8.1464, -31.1605, 42.7068, -73.6334, -60.1439, 1.4219, -140.3864, -0.2991, -0.1597, 0.4750, -0.8120, 0.1349, 0.4745, -0.3160, 0.0000, 0.0000, 0.0000, 0.0000
1, 1.2600, 252, -0.1358, 0.3831, -0.1830, 41.5718, -0.0248, 8.3678, -31.1605, 42.7068, -73.6334, -59.9355, 1.4581, -140.3654, -0.2997, -0.1590, 0.4736, -0.8128, 0.1611, 0.4825, -0.3170, 0.0000, 0.0000, 0.0000, 0.0000
1, 1.2650, 253, -0.1818, 0.3302, -0.1748, 46.4657, 0.1954, 7.5991, -31.1897, 42.4437, -73.8965, -59.7027, 1.4914, -140.3471, -0.3002, -0.1582, 0.4720, -0.8136, 0.2077, 0.5334, -0.3286, 0.0000, 0.0000, 0.0000, 0.0000
1, 1.2700, 254, -0.2240, 0.2729, -0.1562, 50.1021, 1.6895, 5.7757, -31.1897, 42.4437, -73.8965, -59.4520, 1.5206, -140.3398, -0.3008, -0.1574, 0.4703, -0.8146, 0.2504, 0.5886, -0.3509, 0.0000, 0.0000, 0.0000, 0.0000
1, 1.2750, 255, -0.2529, 0.2332, -0.1348, 52.1934, 4.4840, 3.1667, -31.1020, 43.2330, -74.2181, -59.1913, 1.5457, -140.3510, -0.3011, -0.1564, 0.4685, -0.8157, 0.2798, 0.6260, -0.3762, 0.0000, 0.0000, 0.0000, 0.0000
1, 1.2800, 256, -0.2631, 0.2119, -0.1184, 52.5381, 7.7021, -0.7247, -31.1020, 43.2330, -74.2181, -58.9302, 1.5490, -140.3866, -0.3012, -0.1556, 0.4667, -0.8168, 0.2902, 0.6449, -0.3966, 0.0000, 0.0000, 0.0000, 0.0000
1, 1.2850, 257, -0.2435, 0.2086, -0.1080, 51.1078, 10.8377, -6.1443, -31.1020, 43.2330, -74.2181, -58.6763, 1.5508, -140.4489, -0.3012, -0.1547, 0.4650, -0.8180, 0.2706, 0.6459, -0.4107, 0.0000, 0.0000, 0.0000, 0.0000
1, 1.2900, 258, -0.2157, 0.2331, -0.1131, 50.3619, 12.9721, -10.7037, -30.9559, 42.0930, -74.5396, -58.4268, 1.5390, -140.5321, -0.3008, -0.1537, 0.4633, -0.8193, 0.2426, 0.6192, -0.4094, 0.0000, 0.0000, 0.0000, 0.0000
1, 1.2950, 259, -0.2044, 0.2732, -0.1297, 50.1593, 14.0399, -14.5823, -30.9559, 42.0930, -74.5396, -58.1786, 1.5138, -140.6302, -0.3004, -0.1529, 0.4616, -0.8206, 0.2310, 0.5768, -0.3964, 0.0000, 0.0000, 0.0000, 0.0000
1, 1.3000, 260, -0.2057, 0.3245, -0.1430, 51.1014, 13.5995, -16.0149, -30.4882, 42.2391, -75.2119, -57.9257, 1.4818, -140.7303, -0.2999, -0.1520, 0.4598, -0.8219, 0.2317, 0.5231, -0.3869, 0.0000, 0.0000, 0.0000, 0.0000
1, 1.3050, 261, -0.1856, 0.3642, -0.1508, 52.2550, 11.8399, -14.5808, -30.4882, 42.2391, -75.2119, -57.6667, 1.4517, -140.8193, -0.2995, -0.1512, 0.4580, -0.8232, 0.2111, 0.4811, -0.3829, 0.0000, 0.0000, 0.0000, 0.0000
1, 1.3100, 262, -0.1373, 0.3836, -0.1671, 54.9742, 10.2850, -12.6374, -30.4882, 42.2391, -75.2119, -57.3938, 1.4260, -140.8966, -0.2992, -0.1504, 0.4561, -0.8245, 0.1623, 0.4592, -0.3705, 0.0000, 0.0000, 0.0000, 0.0000
1, 1.3150, 263, -0.1047, 0.3810, -0.1873, 58.2673, 8.2826, -10.2906, -30.7220, 42.1222, -75.2412, -57.1040, 1.4051, -140.9593, -0.2990, -0.1495, 0.4540, -0.8259, 0.1293, 0.4591, -0.3546, 0.0000, 0.0000, 0.0000, 0.0000
1, 1.3200, 264, -0.1044, 0.3743, -0.1975, 61.3791, 6.0565, -7.0781, -30.7220, 42.1222, -75.2412, -56.7982, 1.3920, -141.0040, -0.2990, -0.1487, 0.4519, -0.8272, 0.1288, 0.4629, -0.3488, 0.0000, 0.0000, 0.0000, 0.0000
1, 1.3250, 265, -0.0915, 0.3676, -0.1985, 63.6028, 2.8483, -2.8168, -30.6343, 42.0345, -75.0950, -56.4806, 1.3880, -141.0236, -0.2993, -0.1478, 0.4496, -0.8285, 0.1157, 0.4667, -0.3524, 0.0000, 0.0000, 0.0000, 0.0000
1, 1.3300, 266, -0.0669, 0.3612, -0.1933, 64.7146, 0.5707, 0.5691, -30.6343, 42.0345, -75.0950, -56.1592, 1.3885, -141.0245, -0.2997, -0.1469, 0.4473, -0.8298, 0.0911, 0.4699, -0.3623, 0.0000, 0.0000, 0.0000, 0.0000
1, 1.3350, 267, -0.0382, 0.3576, -0.1812, 65.2479, -0.8863, 3.6215, -30.6343, 42.0345, -75.0950, -55.8327, 1.4010, -141.0107, -0.3003, -0.1460, 0.4449, -0.8310, 0.0626, 0.4703, -0.3791, 0.0000, 0.0000, 0.0000, 0.0000
1, 1.3400, 268, -0.0048, 0.3540, -0.1815, 65.2438, -2.2118, 6.7249, -30.5466, 40.7191, -75.2996, -55.5058, 1.4226, -140.9826, -0.3010, -0.1451, 0.4426, -0.8322, 0.0295, 0.4707, -0.3835, 0.0000, 0.0000, 0.0000, 0.0000
1, 1.3450, 269, 0.0018, 0.3391, -0.2027, 63.4872, -2.6745, 8.7207, -30.5466, 40.7191, -75.2996, -55.1874, 1.4508, -140.9468, -0.3017, -0.1442, 0.4403, -0.8333, 0.0233, 0.4825, -0.3668, 0.0000, 0.0000, 0.0000, 0.0000
1, 1.3500, 270, -0.0355, 0.3449, -0.2162, 61.2073, -0.7796, 10.2125, -31.0436, 40.7775, -75.4458, -54.8806, 1.4904, -140.9143, -0.3025, -0.1433, 0.4381, -0.8343, 0.0614, 0.4735, -0.3578, 0.0000, 0.0000, 0.0000, 0.0000
1, 1.3550, 271, -0.0560, 0.4084, -0.2255, 59.8509, 4.5203, 12.0902, -31.0436, 40.7775, -75.4458, -54.5809, 1.5529, -140.8978, -0.3032, -0.1421, 0.4361, -0.8353, 0.0828, 0.4070, -0.3528, 0.0000, 0.0000, 0.0000, 0.0000
1, 1.3600, 272, -0.0297, 0.4925, -0.2442, 59.9156, 10.3008, 14.2630, -31.0436, 40.7775, -75.4458, -54.2813, 1.6408, -140.8983, -0.3039, -0.1406, 0.4341, -0.8363, 0.0579, 0.3198, -0.3383, 0.0000, 0.0000, 0.0000, 0.0000
1, 1.3650, 273, 0.0065, 0.5531, -0.2580, 61.5657, 14.4079, 17.1527, -30.7512, 41.8591, -75.4750, -53.9737, 1.7525, -140.9064, -0.3047, -0.1390, 0.4321, -0.8373, 0.0235, 0.2560, -0.3288, 0.0000, 0.0000, 0.0000, 0.0000
1, 1.3700, 274, 0.0271, 0.5711, -0.2621, 62.5905, 16.9427, 20.0880, -30.7512, 41.8591, -75.4750, -53.6611, 1.8836, -140.9155, -0.3054, -0.1371, 0.4302, -0.8383, 0.0052, 0.2348, -0.3291, 0.0000, 0.0000, 0.0000, 0.0000
1, 1.3750, 275, 0.0333, 0.5690, -0.2626, 63.1478, 16.5426, 23.1077, -30.5174, 40.7191, -75.4750, -53.3452, 2.0257, -140.9132, -0.3064, -0.1353, 0.4282, -0.8393, 0.0014, 0.2336, -0.3330, 0.0000, 0.0000, 0.0000, 0.0000
1, 1.3800, 276, 0.0335, 0.5537, -0.2611, 62.7255, 14.2940, 26.2300, -30.5174, 40.7191, -75.4750, -53.0365, 2.1740, -140.8917, -0.3074, -0.1334, 0.4263, -0.8402, 0.0038, 0.2456, -0.3387, 0.0000, 0.0000, 0.0000, 0.0000
1, 1.3850, 277, 0.0283, 0.5430, -0.2659, 60.6340, 11.2508, 29.3272, -30.3420, 40.8360, -74.9196, -52.7317, 2.3249, -140.8480, -0.3086, -0.1316, 0.4244, -0.8410, 0.0117, 0.2530, -0.3381, 0.0000, 0.0000, 0.0000, 0.0000
1, 1.3900, 278, 0.0255, 0.5389, -0.2809, 57.2516, 8.4620, 32.8675, -30.3420, 40.8360, -74.9196, -52.4426, 2.4811, -140.7817, -0.3100, -0.1300, 0.4226, -0.8417, 0.0171, 0.2538, -0.3271, 0.0000, 0.0000, 0.0000, 0.0000
1, 1.3950, 279, 0.0347, 0.5535, -0.3105, 52.8578, 6.6875, 36.4431, -30.3420, 40.8360, -74.9196, -52.1745, 2.6457, -140.6967, -0.3115, -0.1283, 0.4210, -0.8422, 0.0108, 0.2363, -0.3012, 0.0000, 0.0000, 0.0000, 0.0000
1, 1.4000, 280, 0.0638, 0.5804, -0.3591, 48.8496, 4.9609, 41.1140, -30.3712, 39.5498, -75.0950, -51.9252, 2.8231, -140.5897, -0.3132, -0.1267, 0.4195, -0.8425, -0.0153, 0.2065, -0.2560, 0.0000, 0.0000, 0.0000, 0.0000
1, 1.4050, 281, 0.0965, 0.6250, -0.4024, 45.4455, 3.0160, 46.6434, -30.3712, 39.5498, -75.0950, -51.6912, 3.0157, -140.4572, -0.3151, -0.1251, 0.4181, -0.8427, -0.0447, 0.1592, -0.2159, 0.0000, 0.0000, 0.0000, 0.0000
1, 1.4100, 282, 0.1425, 0.6980, -0.4290, 44.2612, 3.6384, 52.3242, -29.4943, 40.9529, -75.1827, -51.4618, 3.2319, -140.3086, -0.3172, -0.1234, 0.4168, -0.8428, -0.0871, 0.0836, -0.1923, 0.0000, 0.0000, 0.0000, 0.0000
1, 1.4150, 283, 0.1972, 0.6848, -0.5064, 44.6355, 2.9021, 56.6978, -29.4943, 40.9529, -75.1827, -51.2289, 3.4624, -140.1426, -0.3195, -0.1217, 0.4155, -0.8429, -0.1378, 0.0941, -0.1179, 0.0000, 0.0000, 0.0000, 0.0000
1, 1.4200, 284, 0.2826, 0.7316, -0.4948, 48.0526, -4.2831, 65.8111, -29.4943, 40.9529, -75.1827, -50.9747, 3.7050, -139.9188, -0.3222, -0.1200, 0.4140, -0.8428, -0.2191, 0.0444, -0.1327, 0.0000, 0.0000, 0.0000, 0.0000
1, 1.4250, 285, 0.1794, 0.8227, -0.5210, 52.9567, -1.8009, 70.9071, -29.9035, 42.1806, -75.0950, -50.6944, 3.9742, -139.6874, -0.3252, -0.1180, 0.4124, -0.8428, -0.1112, -0.0500, -0.1100, 0.0000, 0.0000, 0.0000, 0.0000
1, 1.4300, 286, 0.2145, 0.7514, -0.5280, 55.7635, 1.1602, 73.5920, -29.9035, 42.1806, -75.0950, -50.4021, 4.2690, -139.4572, -0.3282, -0.1158, 0.4108, -0.8427, -0.1414, 0.0179, -0.1067, 0.0000, 0.0000, 0.0000, 0.0000
1, 1.4350, 287, 0.2467, 0.7244, -0.5209, 58.7689, 4.3149, 78.4822, -28.6466, 41.9760, -75.2412, -50.0901, 4.5845, -139.2221, -0.3313, -0.1134, 0.4091, -0.8426, -0.1681, 0.0411, -0.1177, 0.0000, 0.0000, 0.0000, 0.0000
1, 1.4400, 288, 0.2713, 0.6989, -0.4899, 60.5847, 6.3080, 81.5146, -28.6466, 41.9760, -75.2412, -49.7674, 4.9167, -138.9830, -0.3344, -0.1108, 0.4074, -0.8426, -0.1870, 0.0627, -0.1526, 0.0000, 0.0000, 0.0000, 0.0000
1, 1.4450, 289, 0.2526, 0.6465, -0.4961, 60.0632, 7.5027, 82.8584, -28.6466, 41.9760, -75.2412, -49.4457, 5.2566, -138.7422, -0.3376, -0.1082, 0.4057, -0.8424, -0.1625, 0.1111, -0.1503, 0.0000, 0.0000, 0.0000, 0.0000
1, 1.4500, 290, 0.2472, 0.5786, -0.4977, 56.8975, 9.6635, 82.7492, -29.0266, 42.8530, -74.8319, -49.1391, 5.6017, -138.5079, -0.3408, -0.1056, 0.4041, -0.8423, -0.1510, 0.1750, -0.1525, 0.0000, 0.0000, 0.0000, 0.0000
1, 1.4550, 291, 0.2634, 0.5624, -0.5184, 50.9522, 11.5050, 82.3319, -29.0266, 42.8530, -74.8319, -48.8614, 5.9501, -138.2801, -0.3438, -0.1029, 0.4028, -0.8420, -0.1613, 0.1876, -0.1352, 0.0000, 0.0000, 0.0000, 0.0000
1, 1.4600, 292, 0.2958, 0.5659, -0.5549, 43.2791, 11.3925, 81.9209, -28.0327, 42.4145, -74.6273, -48.6206, 6.2956, -138.0515, -0.3468, -0.1004, 0.4017, -0.8416, -0.1876, 0.1807, -0.1015, 0.0000, 0.0000, 0.0000, 0.0000
1, 1.4650, 293, 0.3432, 0.5862, -0.6030, 36.0116, 9.9467, 81.8715, -28.0327, 42.4145, -74.6273, -48.4140, 6.6352, -137.8161, -0.3498, -0.0981, 0.4009, -0.8410, -0.2292, 0.1575, -0.0558, 0.0000, 0.0000, 0.0000, 0.0000
1, 1.4700, 294, 0.3953, 0.6243, -0.6509, 29.6495, 10.9056, 81.1592, -28.0327, 42.4145, -74.6273, -48.2385, 6.9745, -137.5854, -0.3527, -0.0958, 0.4003, -0.8403, -0.2754, 0.1167, -0.0098, 0.0000, 0.0000, 0.0000, 0.0000
1, 1.4750, 295, 0.4100, 0.6450, -0.7042, 21.4264, 11.8712, 81.1488, -28.0035, 42.0345, -75.3288, -48.1029, 7.3165, -137.3572, -0.3556, -0.0936, 0.4001, -0.8395, -0.2841, 0.0938, 0.0421, 0.0000, 0.0000, 0.0000, 0.0000
1, 1.4800, 296, 0.4186, 0.6767, -0.7606, 10.2408, 8.4119, 83.2261, -28.0035, 42.0345, -75.3288, -48.0138, 7.6675, -137.1071, -0.3586, -0.0916, 0.4002, -0.8384, -0.2867, 0.0603, 0.0977, 0.0000, 0.0000, 0.0000, 0.0000
1, 1.4850, 297, 0.4744, 0.7359, -0.7895, -2.5507, -1.9585, 86.1798, -27.2727, 43.1160, -74.4519, -47.9859, 7.9811, -136.8087, -0.3617, -0.0902, 0.4006, -0.8370, -0.3369, 0.0001, 0.1266, 0.0000, 0.0000, 0.0000, 0.0000
1, 1.4900, 298, 0.5536, 0.8253, -0.7868, -15.4051, -19.2368, 88.7388, -27.2727, 43.1160, -74.4519, -48.0104, 8.2465, -136.4365, -0.3653, -0.0896, 0.4012, -0.8352, -0.4113, -0.0897, 0.1245, 0.0000, 0.0000, 0.0000, 0.0000
1, 1.4950, 299, 0.6473, 1.0254, -1.6592, -15.8021, -56.4387, 93.4924, -26.8343, 43.1160, -73.4581, -48.0127, 8.4053, -135.9085, -0.3696, -0.0902, 0.4012, -0.8332, -0.5016, -0.2899, 0.9975, 0.0000, 0.0000, 0.0000, 0.0000
1, 1.5000, 300, 1.3950, 2.8977, -3.2970, 143.9035, -101.2248, 153.6158, -26.8343, 43.9638, -73.4581, -47.1600, 8.6320, -135.0068, -0.3775, -0.0889, 0.3949, -0.8328, -1.2463, -2.1691, 2.6284, 0.0000, 0.0000, 0.0000, 0.0000
1, 1.5050, 301, -0.5373, 3.9831, -1.7475, 297.0791, -58.6087, 163.5172, -26.8343, 43.9638, -73.4581, -45.5541, 9.0222, -134.2218, -0.3856, -0.0833, 0.3838, -0.8349, 0.6928, -3.2731, 1.0607, 0.0000, 0.0000, 0.0000, 0.0000
1, 1.5100, 302, -0.1419, 2.3383, -0.7274, 215.8047, -70.3390, 16.8818, -27.2143, 43.5837, -74.2473, -44.4265, 8.8332, -133.9104, -0.3881, -0.0819, 0.3748, -0.8380, 0.2968, -1.6437, 0.0248, 0.0000, 0.0000, 0.0000, 0.0000
1, 1.5150, 303, 0.5472, -1.5294, -0.8959, 185.5500, -73.5321, 12.9819, -27.2143, 43.5837, -74.2473, -43.4525, 8.6136, -133.6046, -0.3904, -0.0813, 0.3668, -0.8405, -0.3969, 2.2124, 0.1812, 0.0000, 0.0000, 0.0000, 0.0000
1, 1.5200, 304, -1.0777, -0.4160, -0.9997, 204.8105, 4.6867, 42.1277, -26.8927, 43.2914, -74.9196, -42.4073, 8.7744, -133.4643, -0.3926, -0.0769, 0.3595, -0.8430, 1.2291, 1.0859, 0.2730, 0.0000, 0.0000, 0.0000, 0.0000
1, 1.5250, 305, 0.4019, 2.0958, -1.2650, 212.3458, 56.8495, 68.7673, -26.8927, 43.2914, -74.9196, -41.3351, 9.2154, -133.3971, -0.3950, -0.0701, 0.3528, -0.8453, -0.2437, -1.4401, 0.5267, 0.0000, 0.0000, 0.0000, 0.0000
1, 1.5300, 306, 2.5810, 1.2915, -1.2795, 177.1208, 9.2414, 106.7126, -26.8927, 43.2914, -74.9196, -40.3873, 9.6008, -133.0186, -0.3993, -0.0651, 0.3468, -0.8462, -2.4157, -0.6495, 0.5308, 0.0000, 0.0000, 0.0000, 0.0000
1, 1.5350, 307, 0.9285, -0.2153, -1.3066, 151.0778, -3.7013, 80.0963, -26.5419, 42.5314, -74.9196, -39.5774, 9.8442, -132.6952, -0.4027, -0.0614, 0.3414, -0.8471, -0.7585, 0.8458, 0.5493, 0.0000, 0.0000, 0.0000, 0.0000
1, 1.5400, 308, -0.6495, -0.0669, -1.3455, 161.5365, 20.4921, 65.3894, -26.5419, 42.5314, -74.9196, -38.7364, 10.1300, -132.5034, -0.4052, -0.0568, 0.3359, -0.8484, 0.8241, 0.6859, 0.5797, 0.0000, 0.0000, 0.0000, 0.0000
1, 1.5450, 309, 0.2098, 0.6244, -1.2137, 167.4860, 30.9971, 71.6491, -25.7235, 42.5022, -75.5335, -37.8654, 10.4738, -132.3153, -0.4078, -0.0516, 0.3304, -0.8496, -0.0295, -0.0177, 0.4394, 0.0000, 0.0000, 0.0000, 0.0000
1, 1.5500, 310, 0.9642, 0.7757, -1.1363, 166.2885, 31.9185, 61.4200, -25.7235, 42.5022, -75.5335, -37.0064, 10.7872, -132.1660, -0.4100, -0.0466, 0.3250, -0.8509, -0.7784, -0.1814, 0.3539, 0.0000, 0.0000, 0.0000, 0.0000
1, 1.5550, 311, 0.5303, 0.9922, -1.3502, 161.3980, 12.7747, 61.3275, -25.7235, 42.5022, -75.5335, -36.1593, 11.0211, -131.9541, -0.4124, -0.0424, 0.3193, -0.8521, -0.3400, -0.4101, 0.5597, 0.0000, 0.0000, 0.0000, 0.0000
1, 1.5600, 312, -0.0755, 1.3511, -1.4399, 147.4187, -11.9118, 51.2420, -25.5189, 40.3391, -76.4981, -35.3747, 11.1225, -131.7068, -0.4148, -0.0395, 0.3137, -0.8532, 0.2680, -0.7804, 0.6417, 0.0000, 0.0000, 0.0000, 0.0000
1, 1.5650, 313, -0.2485, 1.2215, -1.6726, 111.4789, -23.5719, 34.9537, -25.5189, 40.3391, -76.4981, -34.7758, 11.1265, -131.4921, -0.4166, -0.0378, 0.3092, -0.8541, 0.4415, -0.6600, 0.8680, 0.0000, 0.0000, 0.0000, 0.0000
1, 1.5700, 314, -0.1680, 0.6144, -1.8603, 56.2181, -20.3820, 27.1073, -25.7527, 41.7129, -77.4920, -34.4614, 11.1196, -131.3194, -0.4180, -0.0372, 0.3068, -0.8543, 0.3609, -0.0584, 1.0518, 0.0000, 0.0000, 0.0000, 0.0000
1, 1.5750, 315, 0.0437, -0.0656, -1.7446, 0.6555, -2.0359, 29.1085, -25.7527, 41.7129, -77.4920, -34.4334, 11.1935, -131.1912, -0.4191, -0.0369, 0.3067, -0.8538, 0.1500, 0.6203, 0.9353, 0.0000, 0.0000, 0.0000, 0.0000
1, 1.5800, 316, 0.2319, -0.4511, -1.4784, -33.5133, 20.1628, 34.7668, -25.7527, 41.7129, -77.4920, -34.5637, 11.3762, -131.1002, -0.4201, -0.0362, 0.3083, -0.8528, -0.0356, 1.0070, 0.6706, 0.0000, 0.0000, 0.0000, 0.0000
1, 1.5850, 317, 0.2257, -0.2081, -1.0387, -32.4417, 37.5700, 31.9309, -24.5835, 42.5899, -77.1412, -34.7209, 11.6215, -131.0751, -0.4207, -0.0350, 0.3102, -0.8518, -0.0254, 0.7657, 0.2331, 0.0000, 0.0000, 0.0000, 0.0000
1, 1.5900, 318, 0.1141, 0.7486, -0.8145, -18.4480, 50.2451, 26.6850, -24.5835, 42.5899, -77.1412, -34.8202, 11.9039, -131.1095, -0.4210, -0.0331, 0.3119, -0.8511, 0.0909, -0.1901, 0.0108, 0.0000, 0.0000, 0.0000, 0.0000
1, 1.5950, 319, 0.0245, 0.9393, -0.7745, -20.4145, 51.6033, 24.6285, -24.9050, 42.8822, -76.1766, -34.9322, 12.1860, -131.1571, -0.4212, -0.0312, 0.3136, -0.8505, 0.1854, -0.3799, -0.0273, 0.0000, 0.0000, 0.0000, 0.0000
1, 1.6000, 320, -0.0256, 0.5067, -0.7535, -22.8934, 53.3030, 23.9847, -24.9050, 42.8822, -76.1766, -35.0586, 12.4731, -131.2130, -0.4213, -0.0293, 0.3155, -0.8498, 0.2403, 0.0539, -0.0463, 0.0000, 0.0000, 0.0000, 0.0000
1, 1.6050, 321, 0.0400, 0.5819, -0.5678, -14.3285, 60.6050, 23.0059, -24.9050, 42.8822, -77.4043, -35.1482, 12.7872, -131.2952, -0.4213, -0.0270, 0.3171, -0.8492, 0.1800, -0.0206, -0.2301, 0.0000, 0.0000, 0.0000, 0.0000
1, 1.6100, 322, 0.5400, 1.0320, -0.4322, -3.2527, 55.1464, 31.9038, -24.4958, 42.8822, -77.4043, -35.1710, 13.1044, -131.3243, -0.4217, -0.0246, 0.3183, -0.8487, -0.3146, -0.4708, -0.3643, 0.0000, 0.0000, 0.0000, 0.0000
1, 1.6150, 323, 0.8437, 0.8889, -0.4999, -0.7039, 40.8416, 32.5689, -24.4958, 42.8822, -77.4043, -35.1708, 13.3652, -131.3084, -0.4223, -0.0226, 0.3191, -0.8481, -0.6136, -0.3283, -0.2955, 0.0000, 0.0000, 0.0000, 0.0000
1, 1.6200, 324, 0.7869, 0.5289, -0.6469, 2.5851, 29.7882, 23.0067, -24.3496, 42.0930, -77.1120, -35.1559, 13.5532, -131.2999, -0.4228, -0.0212, 0.3196, -0.8477, -0.5533, 0.0310, -0.1480, 0.0000, 0.0000, 0.0000, 0.0000
1, 1.6250, 325, 0.6473, 0.3902, -0.7252, 8.8154, 20.9440, 13.0279, -24.3496, 42.0930, -77.1120, -35.1136, 13.6763, -131.3071, -0.4230, -0.0200, 0.3197, -0.8476, -0.4113, 0.1689, -0.0696, 0.0000, 0.0000, 0.0000, 0.0000
1, 1.6300, 326, 0.4238, 0.5371, -0.7104, 14.5858, 13.6144, 5.4073, -23.4434, 42.8530, -77.4335, -35.0652, 13.7718, -131.3273, -0.4230, -0.0191, 0.3196, -0.8477, -0.1862, 0.0211, -0.0846, 0.0000, 0.0000, 0.0000, 0.0000
1, 1.6350, 327, 0.2401, 0.6944, -0.7400, 18.1044, 7.3024, 2.1393, -23.4434, 42.8530, -77.4335, -34.9776, 13.8078, -131.3399, -0.4230, -0.0184, 0.3191, -0.8479, -0.0016, -0.1374, -0.0555, 0.0000, 0.0000, 0.0000, 0.0000
1, 1.6400, 328, 0.1542, 0.6296, -0.7885, 17.8709, 2.7390, 1.9857, -23.4434, 42.8530, -77.4335, -34.8882, 13.8248, -131.3396, -0.4231, -0.0180, 0.3185, -0.8481, 0.0847, -0.0739, -0.0078, 0.0000, 0.0000, 0.0000, 0.0000
1, 1.6450, 329, 0.1508, 0.5591, -0.8139, 15.6319, 0.8468, 3.7533, -24.0573, 43.0284, -77.3166, -34.8069, 13.8390, -131.3262, -0.4232, -0.0176, 0.3179, -0.8482, 0.0883, -0.0046, 0.0169, 0.0000, 0.0000, 0.0000, 0.0000
1, 1.6500, 330, 0.1473, 0.5324, -0.8393, 10.9735, -0.6629, 9.2389, -24.0573, 43.0284, -77.3166, -34.7422, 13.8626, -131.2852, -0.4236, -0.0173, 0.3175, -0.8482, 0.0922, 0.0211, 0.0417, 0.0000, 0.0000, 0.0000, 0.0000
1, 1.6550, 331, 0.1115, 0.5343, -0.8594, 6.0980, -0.2004, 11.5791, -24.1158, 42.7945, -77.5504, -34.6998, 13.8947, -131.2356, -0.4240, -0.0170, 0.3173, -0.8481, 0.1285, 0.0185, 0.0613, 0.0000, 0.0000, 0.0000, 0.0000
1, 1.6600, 332, 0.1060, 0.5176, -0.8735, 2.6875, 3.0543, 14.4632, -24.1158, 42.7945, -77.5504, -34.6738, 13.9484, -131.1833, -0.4245, -0.0167, 0.3172, -0.8479, 0.1348, 0.0347, 0.0754, 0.0000, 0.0000, 0.0000, 0.0000
1, 1.6650, 333, 0.1295, 0.5152, -0.8618, -0.6520, 6.3791, 17.2801, -24.1158, 42.7945, -77.5504, -34.6638, 14.0238, -131.1288, -0.4250, -0.0162, 0.3174, -0.8475, 0.1125, 0.0367, 0.0637, 0.0000, 0.0000, 0.0000, 0.0000
1, 1.6700, 334, 0.1613, 0.5374, -0.8350, -3.4888, 9.8592, 19.3474, -24.1742, 43.2037, -77.4335, -34.6684, 14.1194, -131.0756, -0.4256, -0.0157, 0.3177, -0.8471, 0.0822, 0.0143, 0.0373, 0.0000, 0.0000, 0.0000, 0.0000
1, 1.6750, 335, 0.1920, 0.5623, -0.8115, -5.4546, 12.8289, 20.0492, -24.1742, 43.2037, -77.4335, -34.6841, 14.2292, -131.0282, -0.4262, -0.0150, 0.3182, -0.8467, 0.0533, -0.0107, 0.0142, 0.0000, 0.0000, 0.0000, 0.0000
1, 1.6800, 336, 0.2220, 0.5678, -0.7981, -7.1868, 13.3180, 22.1518, -23.3557, 42.1222, -78.2520, -34.7082, 14.3432, -130.9740, -0.4268, -0.0144, 0.3187, -0.8462, 0.0253, -0.0162, 0.0015, 0.0000, 0.0000, 0.0000, 0.0000
1, 1.6850, 337, 0.2810, 0.5753, -0.7689, -8.8213, 11.1381, 24.8475, -23.3557, 42.1222, -78.2520, -34.7342, 14.4597, -130.9013, -0.4276, -0.0138, 0.3193, -0.8456, -0.0317, -0.0236, -0.0271, 0.0000, 0.0000, 0.0000, 0.0000
1, 1.6900, 338, 0.3163, 0.5742, -0.7729, -8.0606, 9.8359, 25.4659, -23.3557, 42.1222, -78.2520, -34.7547, 14.5727, -130.8222, -0.4284, -0.0132, 0.3198, -0.8450, -0.0651, -0.0225, -0.0224, 0.0000, 0.0000, 0.0000, 0.0000
1, 1.6950, 339, 0.3106, 0.5593, -0.7813, -7.6454, 8.0409, 25.0945, -23.3265, 43.6130, -77.7258, -34.7720, 14.6773, -130.7393, -0.4292, -0.0127, 0.3202, -0.8445, -0.0577, -0.0076, -0.0135, 0.0000, 0.0000, 0.0000, 0.0000
1, 1.7000, 340, 0.2899, 0.5761, -0.7982, -8.2656, 6.0619, 25.0352, -23.3265, 43.6130, -77.7258, -34.7908, 14.7736, -130.6509, -0.4300, -0.0123, 0.3206, -0.8439, -0.0353, -0.0243, 0.0040, 0.0000, 0.0000, 0.0000, 0.0000
1, 1.7050, 341, 0.2749, 0.5769, -0.7960, -9.0788, 5.5532, 24.6569, -23.1804, 43.2330, -77.9012, -34.8136, 14.8668, -130.5626, -0.4308, -0.0119, 0.3211, -0.8433, -0.0187, -0.0251, 0.0024, 0.0000, 0.0000, 0.0000, 0.0000
1, 1.7100, 342, 0.2793, 0.6029, -0.8051, -9.4367, 5.6895, 24.5397, -23.1804, 43.2330, -77.9012, -34.8383, 14.9602, -130.4752, -0.4316, -0.0115, 0.3215, -0.8427, -0.0215, -0.0510, 0.0121, 0.0000, 0.0000, 0.0000, 0.0000
1, 1.7150, 343, 0.2700, 0.5843, -0.7835, -10.7186, 6.2951, 22.8553, -23.1804, 43.2330, -77.9012, -34.8716, 15.0513, -130.3967, -0.4324, -0.0112, 0.3221, -0.8421, -0.0107, -0.0323, -0.0090, 0.0000, 0.0000, 0.0000, 0.0000
1, 1.7200, 344, 0.2526, 0.5794, -0.8055, -10.7066, 8.1949, 23.2420, -23.2973, 42.7945, -77.5212, -34.9057, 15.1514, -130.3222, -0.4331, -0.0108, 0.3226, -0.8415, 0.0084, -0.0271, 0.0137, 0.0000, 0.0000, 0.0000, 0.0000
1, 1.7250, 345, 0.2661, 0.5778, -0.8115, -10.9687, 9.5669, 22.7111, -23.2973, 42.7945, -77.5212, -34.9427, 15.2556, -130.2541, -0.4338, -0.0103, 0.3232, -0.8410, -0.0034, -0.0253, 0.0205, 0.0000, 0.0000, 0.0000, 0.0000
1, 1.7300, 346, 0.2699, 0.5781, -0.8085, -12.4393, 10.6307, 21.8580, -22.7711, 43.3207, -77.9012, -34.9901, 15.3614, -130.1932, -0.4345, -0.0098, 0.3239, -0.8404, -0.0054, -0.0252, 0.0183, 0.0000, 0.0000, 0.0000, 0.0000
1, 1.7350, 347, 0.2742, 0.5938, -0.7963, -13.5919, 11.8269, 21.2954, -22.7711, 43.3207, -77.9012, -35.0433, 15.4709, -130.1379, -0.4351, -0.0094, 0.3246, -0.8398, -0.0079, -0.0405, 0.0070, 0.0000, 0.0000, 0.0000, 0.0000
1, 1.7400, 348, 0.2970, 0.5912, -0.7908, -14.1309, 12.8385, 19.9867, -22.5957, 43.2330, -77.5212, -35.1015, 15.5809, -130.0913, -0.4356, -0.0089, 0.3254, -0.8392, -0.0289, -0.0374, 0.0025, 0.0000, 0.0000, 0.0000, 0.0000
1, 1.7450, 349, 0.2890, 0.5647, -0.7886, -14.8095, 13.1164, 19.5095, -22.5957, 43.2330, -77.5212, -35.1638, 15.6907, -130.0477, -0.4361, -0.0084, 0.3262, -0.8386, -0.0190, -0.0104, 0.0013, 0.0000, 0.0000, 0.0000, 0.0000
1, 1.7500, 350, 0.2805, 0.5789, -0.7858, -15.2031, 12.6499, 20.5068, -22.5957, 43.2330, -77.5212, -35.2265, 15.8015, -129.9985, -0.4367, -0.0079, 0.3270, -0.8380, -0.0087, -0.0240, -0.0005, 0.0000, 0.0000, 0.0000, 0.0000
1, 1.7550, 351, 0.2944, 0.6053, -0.7786, -16.3658, 10.9611, 21.0566, -22.3619, 43.1160, -77.6089, -35.2929, 15.9070, -129.9420, -0.4373, -0.0075, 0.3278, -0.8374, -0.0208, -0.0499, -0.0066, 0.0000, 0.0000, 0.0000, 0.0000
1, 1.7600, 352, 0.3069, 0.5845, -0.7628, -16.5287, 9.3857, 21.3978, -22.3619, 43.1160, -77.6089, -35.3583, 16.0071, -129.8795, -0.4379, -0.0072, 0.3286, -0.8368, -0.0316, -0.0284, -0.0213, 0.0000, 0.0000, 0.0000, 0.0000
1, 1.7650, 353, 0.3315, 0.5688, -0.7592, -16.2008, 8.1713, 22.5592, -22.3619, 43.2914, -77.9889, -35.4196, 16.1058, -129.8084, -0.4386, -0.0069, 0.3294, -0.8361, -0.0545, -0.0121, -0.0240, 0.0000, 0.0000, 0.0000, 0.0000
1, 1.7700, 354, 0.3325, 0.5619, -0.7526, -14.9366, 7.3108, 21.7654, -22.3619, 43.2914, -77.9889, -35.4748, 16.1987, -129.7381, -0.4393, -0.0066, 0.3301, -0.8355, -0.0539, -0.0047, -0.0297, 0.0000, 0.0000, 0.0000, 0.0000
1, 1.7750, 355, 0.3227, 0.5658, -0.7529, -13.6362, 6.5942, 20.6243, -22.3619, 43.2914, -77.9889, -35.5241, 16.2854, -129.6707, -0.4400, -0.0063, 0.3307, -0.8349, -0.0427, -0.0082, -0.0285, 0.0000, 0.0000, 0.0000, 0.0000
1, 1.7800, 356, 0.3104, 0.5660, -0.7510, -12.3816, 6.4433, 20.1102, -22.1280, 43.6130, -77.6381, -35.5716, 16.3749, -129.6057, -0.4406, -0.0060, 0.3313, -0.8343, -0.0289, -0.0079, -0.0296, 0.0000, 0.0000, 0.0000, 0.0000
1, 1.7850, 357, 0.3062, 0.5703, -0.7497, -11.1982, 6.3993, 19.3495, -22.1280, 43.6130, -77.6381, -35.6099, 16.4573, -129.5431, -0.4412, -0.0057, 0.3318, -0.8338, -0.0232, -0.0120, -0.0302, 0.0000, 0.0000, 0.0000, 0.0000
1, 1.7900, 358, 0.3094, 0.5701, -0.7471, -9.7980, 6.2950, 18.2824, -22.6250, 43.2330, -77.5504, -35.6424, 16.5361, -129.4847, -0.4418, -0.0054, 0.3323, -0.8333, -0.0252, -0.0115, -0.0321, 0.0000, 0.0000, 0.0000, 0.0000
1, 1.7950, 359, 0.3188, 0.5570, -0.7462, -8.6828, 6.0490, 17.3795, -22.6250, 43.2330, -77.5504, -35.6700, 16.6113, -129.4294, -0.4423, -0.0051, 0.3328, -0.8328, -0.0333, 0.0017, -0.0324, 0.0000, 0.0000, 0.0000, 0.0000
1, 1.8000, 360, 0.3411, 0.5431, -0.7495, -7.6346, 5.4642, 16.3691, -22.6250, 43.2330, -77.5504, -35.6931, 16.6813, -129.3767, -0.4429, -0.0048, 0.3331, -0.8324, -0.0543, 0.0158, -0.0286, 0.0000, 0.0000, 0.0000, 0.0000
1, 1.8050, 361, 0.3684, 0.5304, -0.7516, -5.7985, 5.0351, 14.6890, -22.3911, 44.4899, -77.9304, -35.7086, 16.7446, -129.3297, -0.4433, -0.0045, 0.3335, -0.8320, -0.0805, 0.0285, -0.0261, 0.0000, 0.0000, 0.0000, 0.0000
1, 1.8100, 362, 0.3759, 0.5043, -0.7617, -3.9919, 4.6277, 11.9612, -22.3911, 44.4899, -77.9304, -35.7180, 16.7983, -129.2931, -0.4437, -0.0043, 0.3337, -0.8317, -0.0871, 0.0546, -0.0156, 0.0000, 0.0000, 0.0000, 0.0000
1, 1.8150, 363, 0.3821, 0.4840, -0.7546, -2.6112, 4.0496, 9.1134, -22.3327, 44.6361, -77.9304, -35.7234, 16.8413, -129.2668, -0.4439, -0.0040, 0.3339, -0.8315, -0.0925, 0.0749, -0.0225, 0.0000, 0.0000, 0.0000, 0.0000
1, 1.8200, 364, 0.3960, 0.5128, -0.7480, -0.3056, 3.5010, 6.7868, -22.3327, 44.6361, -77.9304, -35.7197, 16.8753, -129.2487, -0.4441, -0.0038, 0.3340, -0.8314, -0.1059, 0.0460, -0.0290, 0.0000, 0.0000, 0.0000, 0.0000
1, 1.8250, 365, 0.3658, 0.5306, -0.7501, 1.2191, 2.9637, 3.6651, -22.3327, 44.6361, -77.9304, -35.7117, 16.8981, -129.2422, -0.4442, -0.0036, 0.3340, -0.8313, -0.0752, 0.0280, -0.0268, 0.0000, 0.0000, 0.0000, 0.0000
1, 1.8300, 366, 0.3658, 0.5326, -0.7476, 3.0606, 2.6247, 0.9386, -21.6603, 44.4899, -78.1935, -35.6948, 16.9941, -129.2409, -0.4444, -0.0028, 0.3341, -0.8312, -0.0743, 0.0256, -0.0292, 0.0000, 0.0000, 0.0000, 0.0000
1, 1.8350, 367, 0.3718, 0.5368, -0.7449, 4.8646, 2.0309, -1.0220, -21.6603, 44.4899, -78.1935, -35.6736, 16.9994, -129.2515, -0.4444, -0.0027, 0.3340, -0.8313, -0.0794, 0.0210, -0.0319, 0.0000, 0.0000, 0.0000, 0.0000
1, 1.8400, 368, 0.3575, 0.5470, -0.7462, 6.5972, 1.4722, -3.0549, -21.3973, 44.0807, -77.7843, -35.6457, 16.9964, -129.2689, -0.4442, -0.0026, 0.3338, -0.8314, -0.0651, 0.0104, -0.0309, 0.0000, 0.0000, 0.0000, 0.0000
1, 1.8450, 369, 0.3385, 0.5594, -0.7494, 8.0782, 1.0475, -5.0615, -21.3973, 44.0807, -77.7843, -35.6125, 16.9860, -129.2936, -0.4440, -0.0024, 0.3335, -0.8316, -0.0463, -0.0024, -0.0280, 0.0000, 0.0000, 0.0000, 0.0000
1, 1.8500, 370, 0.3284, 0.5597, -0.7582, 9.4112, 0.6036, -6.2012, -21.7480, 43.5837, -77.8720, -35.5737, 16.9704, -129.3218, -0.4438, -0.0023, 0.3332, -0.8319, -0.0365, -0.0032, -0.0196, 0.0000, 0.0000, 0.0000, 0.0000
1, 1.8550, 371, 0.3315, 0.5549, -0.7571, 10.3504, 0.1174, -7.0758, -21.7480, 43.5837, -77.8720, -35.5308, 16.9503, -129.3523, -0.4435, -0.0022, 0.3328, -0.8322, -0.0399, 0.0011, -0.0212, 0.0000, 0.0000, 0.0000, 0.0000
1, 1.8600, 372, 0.3307, 0.5670, -0.7580, 11.0051, -0.7208, -7.5073, -21.7480, 43.5837, -77.8720, -35.4845, 16.9255, -129.3820, -0.4433, -0.0021, 0.3324, -0.8325, -0.0395, -0.0116, -0.0208, 0.0000, 0.0000, 0.0000, 0.0000
1, 1.8650, 373, 0.3172, 0.5661, -0.7634, 11.1943, -1.2486, -8.2688, -21.6896, 43.6422, -77.9012, -35.4376, 16.8965, -129.4134, -0.4430, -0.0021, 0.3320, -0.8328, -0.0264, -0.0112, -0.0160, 0.0000, 0.0000, 0.0000, 0.0000
1, 1.8700, 374, 0.3106, 0.5602, -0.7628, 12.0617, -1.9137, -8.7623, -21.6896, 43.6422, -77.9012, -35.3865, 16.8633, -129.4450, -0.4427, -0.0021, 0.3315, -0.8331, -0.0204, -0.0059, -0.0173, 0.0000, 0.0000, 0.0000, 0.0000
1, 1.8750, 375, 0.3174, 0.5654, -0.7645, 12.3220, -2.9022, -8.6497, -22.2450, 43.9930, -77.6381, -35.3330, 16.8264, -129.4730, -0.4424, -0.0020, 0.3310, -0.8335, -0.0278, -0.0117, -0.0162, 0.0000, 0.0000, 0.0000, 0.0000
1, 1.8800, 376, 0.3188, 0.5588, -0.7693, 12.7228, -3.5441, -8.7759, -22.2450, 43.9930, -77.6381, -35.2796, 16.7936, -129.5000, -0.4422, -0.0020, 0.3305, -0.8338, -0.0298, -0.0057, -0.0121, 0.0000, 0.0000, 0.0000, 0.0000
1, 1.8850, 377, 0.3136, 0.5539, -0.7708, 12.5562, -4.6012, -8.7832, -22.2450, 43.9930, -77.6381, -35.2237, 16.7494, -129.5236, -0.4419, -0.0021, 0.3300, -0.8342, -0.0252, -0.0015, -0.0113, 0.0000, 0.0000, 0.0000, 0.0000
1, 1.8900, 378, 0.3155, 0.5625, -0.7711, 12.4229, -5.2412, -9.1725, -21.8065, 44.8699, -77.7258, -35.1683, 16.7016, -129.5470, -0.4417, -0.0021, 0.3294, -0.8345, -0.0279, -0.0106, -0.0117, 0.0000, 0.0000, 0.0000, 0.0000
1, 1.8950, 379, 0.3094, 0.5613, -0.7746, 12.2500, -5.6829, -9.2838, -21.8065, 44.8699, -77.7258, -35.1135, 16.6516, -129.5695, -0.4414, -0.0023, 0.3288, -0.8349, -0.0226, -0.0100, -0.0089, 0.0000, 0.0000, 0.0000, 0.0000
1, 1.9000, 380, 0.2953, 0.5594, -0.7804, 12.1913, -6.7365, -9.4268, -21.8650, 43.5253, -77.6089, -35.0583, 16.5970, -129.5896, -0.4412, -0.0024, 0.3283, -0.8352, -0.0094, -0.0088, -0.0039, 0.0000, 0.0000, 0.0000, 0.0000
1, 1.9050, 381, 0.2920, 0.5687, -0.7787, 12.0489, -6.7359, -9.5016, -21.8650, 43.5253, -77.6089, -35.0038, 16.5421, -129.6100, -0.4409, -0.0025, 0.3277, -0.8356, -0.0070, -0.0186, -0.0064, 0.0000, 0.0000, 0.0000, 0.0000
1, 1.9100, 382, 0.2993, 0.5644, -0.7789, 11.2748, -7.8700, -9.2862, -21.8650, 43.5253, -77.6089, -34.9521, 16.4833, -129.6262, -0.4407, -0.0028, 0.3271, -0.8359, -0.0153, -0.0149, -0.0068, 0.0000, 0.0000, 0.0000, 0.0000
1, 1.9150, 383, 0.3046, 0.5565, -0.7757, 10.8185, -8.6599, -9.1289, -22.3034, 44.5776, -77.6674, -34.9017, 16.4216, -129.6393, -0.4405, -0.0030, 0.3266, -0.8362, -0.0217, -0.0075, -0.0108, 0.0000, 0.0000, 0.0000, 0.0000
1, 1.9200, 384, 0.3100, 0.5628, -0.7732, 11.1090, -8.9596, -9.3632, -22.3034, 44.5776, -77.6674, -34.8499, 16.3581, -129.6527, -0.4403, -0.0032, 0.3260, -0.8366, -0.0281, -0.0144, -0.0140, 0.0000, 0.0000, 0.0000, 0.0000
1, 1.9250, 385, 0.3073, 0.5534, -0.7811, 10.6917, -9.9857, -9.3095, -21.9526, 43.4376, -77.3750, -34.7993, 16.2906, -129.6628, -0.4401, -0.0035, 0.3254, -0.8369, -0.0265, -0.0055, -0.0069, 0.0000, 0.0000, 0.0000, 0.0000
1, 1.9300, 386, 0.2941, 0.5565, -0.7843, 10.8405, -10.1050, -10.0720, -21.9526, 43.4376, -77.3750, -34.7513, 16.2227, -129.6764, -0.4399, -0.0038, 0.3248, -0.8373, -0.0145, -0.0091, -0.0045, 0.0000, 0.0000, 0.0000, 0.0000
1, 1.9350, 387, 0.2821, 0.5752, -0.7827, 10.7710, -10.2757, -10.0746, -21.9526, 43.4376, -77.3750, -34.7010, 16.1517, -129.6891, -0.4396, -0.0041, 0.3243, -0.8376, -0.0036, -0.0282, -0.0068, 0.0000, 0.0000, 0.0000, 0.0000
1, 1.9400, 388, 0.2701, 0.5740, -0.7849, 10.5590, -10.3756, -10.2567, -21.8065, 43.2330, -77.6674, -34.6518, 16.0799, -129.7022, -0.4394, -0.0045, 0.3237, -0.8379, 0.0071, -0.0275, -0.0054, 0.0000, 0.0000, 0.0000, 0.0000
1, 1.9450, 389, 0.2663, 0.5622, -0.7888, 10.4122, -10.0721, -10.1568, -21.8065, 43.2330, -77.6674, -34.6036, 16.0096, -129.7159, -0.4392, -0.0048, 0.3231, -0.8383, 0.0098, -0.0162, -0.0022, 0.0000, 0.0000, 0.0000, 0.0000
1, 1.9500, 390, 0.2673, 0.5551, -0.7928, 10.2633, -9.5634, -10.0917, -22.3034, 43.2914, -77.9012, -34.5564, 15.9416, -129.7309, -0.4389, -0.0051, 0.3225, -0.8386, 0.0076, -0.0096, 0.0011, 0.0000, 0.0000, 0.0000, 0.0000
1, 1.9550, 391, 0.2687, 0.5590, -0.7923, 10.4704, -9.1266, -9.7349, -22.3034, 43.2914, -77.9012, -34.5081, 15.8764, -129.7457, -0.4387, -0.0053, 0.3220, -0.8389, 0.0051, -0.0139, -0.0001, 0.0000, 0.0000, 0.0000, 0.0000
1, 1.9600, 392, 0.2645, 0.5611, -0.7961, 10.2144, -8.5831, -9.7433, -22.5665, 43.6714, -78.1643, -34.4615, 15.8135, -129.7622, -0.4385, -0.0056, 0.3214, -0.8393, 0.0082, -0.0166, 0.0029, 0.0000, 0.0000, 0.0000, 0.0000
1, 1.9650, 393, 0.2593, 0.5585, -0.7972, 10.1018, -8.0365, -9.8512, -22.5665, 43.6714, -78.1643, -34.4161, 15.7525, -129.7808, -0.4382, -0.0058, 0.3209, -0.8396, 0.0125, -0.0144, 0.0034, 0.0000, 0.0000, 0.0000, 0.0000
1, 1.9700, 394, 0.2588, 0.5618, -0.8016, 9.4886, -7.6381, -9.5584, -22.5665, 43.6714, -78.1643, -34.3737, 15.6940, -129.7993, -0.4380, -0.0061, 0.3204, -0.8399, 0.0120, -0.0182, 0.0071, 0.0000, 0.0000, 0.0000, 0.0000
1, 1.9750, 395, 0.2495, 0.5582, -0.7981, 8.9470, -7.1319, -9.5071, -22.2157, 43.4668, -77.8135, -34.3343, 15.6377, -129.8192, -0.4378, -0.0063, 0.3199, -0.8402, 0.0203, -0.0149, 0.0030, 0.0000, 0.0000, 0.0000, 0.0000
1, 1.9800, 396, 0.2727, 0.5533, -0.7899, 8.3676, -6.7043, -8.9688, -22.2157, 43.4668, -77.8135, -34.3003, 15.5878, -129.8386, -0.4375, -0.0065, 0.3195, -0.8405, -0.0038, -0.0104, -0.0057, 0.0000, 0.0000, 0.0000, 0.0000
1, 1.9850, 397, 0.2935, 0.5460, -0.7908, 7.7646, -7.2966, -8.5373, -23.0342, 43.5545, -77.9597, -34.2656, 15.5336, -129.8539, -0.4373, -0.0067, 0.3191, -0.8408, -0.0254, -0.0035, -0.0054, 0.0000, 0.0000, 0.0000, 0.0000
1, 1.9900, 398, 0.2951, 0.5437, -0.7899, 7.7309, -7.3606, -8.7479, -23.0342, 43.5545, -77.9597, -34.2312, 15.4786, -129.8699, -0.4371, -0.0070, 0.3187, -0.8410, -0.0280, -0.0015, -0.0067, 0.0000, 0.0000, 0.0000, 0.0000
1, 1.9950, 399, 0.2918, 0.5509, -0.7871, 7.9520, -7.6179, -9.4034, -23.0342, 43.5545, -77.9597, -34.1963, 15.4207, -129.8880, -0.4369, -0.0072, 0.3182, -0.8413, -0.0256, -0.0091, -0.0101, 0.0000, 0.0000, 0.0000, 0.0000
1, 2.0000, 400, 0.2934, 0.5509, -0.7895, 8.2779, -7.7056, -9.9851, -22.8004, 43.8176, -78.2812, -34.1603, 15.3607, -129.9084, -0.4366, -0.0075, 0.3178, -0.8416, -0.0283, -0.0093, -0.0083, 0.0000, 0.0000, 0.0000, 0.0000
1, 2.0050, 401, 0.2842, 0.5539, -0.7884, 8.8545, -7.7534, -10.7672, -22.8004, 43.8176, -78.2812, -34.1223, 15.2984, -129.9321, -0.4363, -0.0078, 0.3173, -0.8420, -0.0200, -0.0128, -0.0100, 0.0000, 0.0000, 0.0000, 0.0000
1, 2.0100, 402, 0.2808, 0.5538, -0.7850, 9.1809, -8.0166, -11.1049, -23.1219, 43.5545, -77.9304, -34.0828, 15.2341, -129.9564, -0.4360, -0.0080, 0.3168, -0.8423, -0.0178, -0.0130, -0.0140, 0.0000, 0.0000, 0.0000, 0.0000
1, 2.0150, 403, 0.3001, 0.5460, -0.7870, 9.0099, -8.4518, -11.5302, -23.1219, 43.5545, -77.9304, -34.0443, 15.1668, -129.9814, -0.4357, -0.0083, 0.3163, -0.8426, -0.0382, -0.0056, -0.0126, 0.0000, 0.0000, 0.0000, 0.0000
1, 2.0200, 404, 0.3083, 0.5468, -0.7833, 9.5566, -9.1521, -12.0700, -23.1219, 43.5545, -77.9304, -34.0031, 15.0951, -130.0067, -0.4354, -0.0086, 0.3158, -0.8430, -0.0476, -0.0067, -0.0170, 0.0000, 0.0000, 0.0000, 0.0000
1, 2.0250, 405, 0.2917, 0.5535, -0.7883, 10.2832, -9.6694, -13.1614, -23.0050, 42.5607, -77.6674, -33.9591, 15.0183, -130.0352, -0.4351, -0.0090, 0.3152, -0.8434, -0.0322, -0.0139, -0.0126, 0.0000, 0.0000, 0.0000, 0.0000
1, 2.0300, 406, 0.2772, 0.5514, -0.7901, 10.4341, -9.9938, -13.8892, -23.0050, 42.5607, -77.6674, -33.9180, 14.9412, -130.0666, -0.4347, -0.0093, 0.3147, -0.8438, -0.0191, -0.0122, -0.0115, 0.0000, 0.0000, 0.0000, 0.0000
1, 2.0350, 407, 0.2636, 0.5550, -0.7921, 10.5117, -10.2549, -14.4101, -23.4727, 42.5607, -77.9304, -33.8737, 14.8585, -130.0988, -0.4343, -0.0097, 0.3141, -0.8442, -0.0068, -0.0161, -0.0102, 0.0000, 0.0000, 0.0000, 0.0000
1, 2.0400, 408, 0.2563, 0.5478, -0.7991, 11.0852, -10.3491, -14.5993, -23.4727, 42.5607, -77.9304, -33.8267, 14.7748, -130.1317, -0.4339, -0.0101, 0.3135, -0.8446, -0.0009, -0.0094, -0.0040, 0.0000, 0.0000, 0.0000, 0.0000
1, 2.0450, 409, 0.2597, 0.5440, -0.8000, 10.8002, -10.3842, -14.6443, -23.4727, 42.5607, -77.9304, -33.7811, 14.6910, -130.1648, -0.4335, -0.0105, 0.3129, -0.8450, -0.0057, -0.0061, -0.0038, 0.0000, 0.0000, 0.0000, 0.0000
1, 2.0500, 410, 0.2542, 0.5466, -0.8058, 11.3745, -10.5111, -14.9033, -23.3557, 43.1160, -77.4043, -33.7328, 14.6059, -130.1986, -0.4331, -0.0108, 0.3123, -0.8455, -0.0017, -0.0091, 0.0012, 0.0000, 0.0000, 0.0000, 0.0000
1, 2.0550, 411, 0.2484, 0.5510, -0.8041, 11.7246, -9.8958, -14.8901, -23.3557, 43.1160, -77.4043, -33.6831, 14.5234, -130.2343, -0.4327, -0.0112, 0.3116, -0.8459, 0.0028, -0.0140, -0.0013, 0.0000, 0.0000, 0.0000, 0.0000
1, 2.0600, 412, 0.2483, 0.5503, -0.8045, 11.6522, -9.6164, -15.2412, -23.3850, 43.0868, -77.9889, -33.6344, 14.4411, -130.2722, -0.4323, -0.0115, 0.3110, -0.8463, 0.0015, -0.0138, -0.0016, 0.0000, 0.0000, 0.0000, 0.0000
1, 2.0650, 413, 0.2503, 0.5475, -0.8035, 11.8660, -9.5455, -15.3034, -23.3850, 43.0868, -77.9889, -33.5846, 14.3590, -130.3108, -0.4319, -0.0119, 0.3104, -0.8468, -0.0020, -0.0115, -0.0034, 0.0000, 0.0000, 0.0000, 0.0000
1, 2.0700, 414, 0.2560, 0.5485, -0.8021, 11.7931, -9.4096, -15.3058, -24.0573, 43.0868, -77.8720, -33.5353, 14.2775, -130.3497, -0.4314, -0.0122, 0.3098, -0.8472, -0.0090, -0.0130, -0.0055, 0.0000, 0.0000, 0.0000, 0.0000
1, 2.0750, 415, 0.2705, 0.5447, -0.8008, 11.5129, -9.8883, -15.3163, -24.0573, 42.5899, -77.8720, -33.4870, 14.1940, -130.3875, -0.4310, -0.0125, 0.3091, -0.8477, -0.0250, -0.0097, -0.0076, 0.0000, 0.0000, 0.0000, 0.0000
1, 2.0800, 416, 0.2944, 0.5306, -0.7976, 11.5964, -10.6241, -15.9423, -24.0573, 42.5899, -77.8720, -33.4390, 14.1142, -130.4255, -0.4306, -0.0129, 0.3085, -0.8481, -0.0502, 0.0039, -0.0115, 0.0000, 0.0000, 0.0000, 0.0000
1, 2.0850, 417, 0.3012, 0.5318, -0.8010, 11.6182, -11.9988, -16.9900, -23.4142, 43.1453, -77.6089, -33.3904, 14.0174, -130.4645, -0.4301, -0.0133, 0.3079, -0.8486, -0.0585, 0.0022, -0.0089, 0.0000, 0.0000, 0.0000, 0.0000
1, 2.0900, 418, 0.2923, 0.5389, -0.7987, 11.4935, -12.9627, -18.1818, -23.4142, 43.1453, -77.6089, -33.3429, 13.9133, -130.5060, -0.4296, -0.0138, 0.3072, -0.8490, -0.0514, -0.0053, -0.0120, 0.0000, 0.0000, 0.0000, 0.0000
1, 2.0950, 419, 0.2797, 0.5503, -0.7971, 11.4753, -13.8570, -19.4048, -23.9404, 43.3791, -77.5212, -33.2962, 13.8021, -130.5503, -0.4291, -0.0144, 0.3065, -0.8495, -0.0407, -0.0171, -0.0144, 0.0000, 0.0000, 0.0000, 0.0000
1, 2.1000, 420, 0.2808, 0.5436, -0.8034, 10.9558, -14.8661, -20.1920, -23.9404, 43.3791, -77.5212, -33.2521, 13.6845, -130.5953, -0.4285, -0.0150, 0.3058, -0.8501, -0.0438, -0.0108, -0.0090, 0.0000, 0.0000, 0.0000, 0.0000
1, 2.1050, 421, 0.2828, 0.5296, -0.8122, 10.9011, -15.7991, -21.2069, -23.9404, 43.3791, -77.5212, -33.2085, 13.5603, -130.6420, -0.4280, -0.0157, 0.3051, -0.8506, -0.0478, 0.0029, -0.0009, 0.0000, 0.0000, 0.0000, 0.0000
1, 2.1100, 422, 0.2846, 0.5209, -0.8183, 10.3082, -16.5681, -22.1011, -23.7650, 43.3791, -77.6089, -33.1683, 13.4305, -130.6905, -0.4274, -0.0164, 0.3044, -0.8511, -0.0518, 0.0113, 0.0043, 0.0000, 0.0000, 0.0000, 0.0000
1, 2.1150, 423, 0.2864, 0.5455, -0.8120, 9.6772, -17.3105, -22.6477, -23.7650, 43.3791, -77.6089, -33.1312, 13.2961, -130.7393, -0.4268, -0.0172, 0.3037, -0.8517, -0.0558, -0.0135, -0.0027, 0.0000, 0.0000, 0.0000, 0.0000
1, 2.1200, 424, 0.2923, 0.5630, -0.8114, 9.0108, -17.8747, -23.5791, -24.5542, 43.3499, -77.5504, -33.0979, 13.1569, -130.7905, -0.4262, -0.0180, 0.3030, -0.8522, -0.0641, -0.0313, -0.0041, 0.0000, 0.0000, 0.0000, 0.0000
1, 2.1250, 425, 0.3093, 0.5534, -0.8102, 8.2793, -18.9837, -24.5484, -24.5542, 43.3499, -77.5504, -33.0684, 13.0103, -130.8429, -0.4255, -0.0188, 0.3023, -0.8528, -0.0836, -0.0218, -0.0061, 0.0000, 0.0000, 0.0000, 0.0000
1, 2.1300, 426, 0.3063, 0.5354, -0.8170, 8.1995, -20.5169, -26.1930, -24.5542, 43.3499, -77.5504, -33.0399, 12.8614, -130.8978, -0.4248, -0.0197, 0.3016, -0.8533, -0.0831, -0.0038, -0.0000, 0.0000, 0.0000, 0.0000, 0.0000
1, 2.1350, 427, 0.2802, 0.5359, -0.8293, 8.1133, -21.2579, -28.2555, -24.4665, 42.4730, -77.4043, -33.0131, 12.6952, -130.9598, -0.4240, -0.0207, 0.3009, -0.8539, -0.0598, -0.0043, 0.0114, 0.0000, 0.0000, 0.0000, 0.0000
1, 2.1400, 428, 0.2573, 0.5367, -0.8368, 8.0996, -22.6320, -29.3393, -24.4665, 42.4730, -77.4043, -32.9863, 12.5204, -131.0227, -0.4233, -0.0218, 0.3002, -0.8546, -0.0398, -0.0052, 0.0182, 0.0000, 0.0000, 0.0000, 0.0000
1, 2.1450, 429, 0.2565, 0.5345, -0.8405, 7.2870, -23.3865, -29.3690, -24.4081, 42.6776, -77.6089, -32.9630, 12.3424, -131.0837, -0.4225, -0.0229, 0.2994, -0.8552, -0.0420, -0.0030, 0.0211, 0.0000, 0.0000, 0.0000, 0.0000
1, 2.1500, 430, 0.2620, 0.5495, -0.8361, 6.1511, -24.1503, -29.0613, -24.4081, 42.6776, -77.6089, -32.9445, 12.1621, -131.1413, -0.4217, -0.0241, 0.2987, -0.8558, -0.0506, -0.0180, 0.0159, 0.0000, 0.0000, 0.0000, 0.0000
1, 2.1550, 431, 0.2795, 0.5546, -0.8502, 4.4536, -25.6633, -28.9488, -24.4081, 42.6776, -77.6089, -32.9332, 11.9757, -131.1941, -0.4210, -0.0254, 0.2981, -0.8563, -0.0712, -0.0229, 0.0293, 0.0000, 0.0000, 0.0000, 0.0000
1, 2.1600, 432, 0.2932, 0.5234, -0.8740, 2.7211, -27.2092, -28.9073, -25.0512, 41.8591, -77.2581, -32.9296, 11.7829, -131.2425, -0.4202, -0.0267, 0.2974, -0.8569, -0.0882, 0.0087, 0.0525, 0.0000, 0.0000, 0.0000, 0.0000
1, 2.1650, 433, 0.2926, 0.5115, -0.8906, 1.2435, -28.4873, -30.1823, -25.0512, 41.8591, -77.2581, -32.9336, 11.5813, -131.2928, -0.4195, -0.0281, 0.2968, -0.8574, -0.0909, 0.0210, 0.0685, 0.0000, 0.0000, 0.0000, 0.0000
1, 2.1700, 434, 0.2755, 0.5387, -0.9025, -0.9121, -29.6629, -31.6905, -24.9635, 42.1222, -77.0827, -32.9487, 11.3707, -131.3462, -0.4187, -0.0297, 0.2963, -0.8579, -0.0774, -0.0056, 0.0799, 0.0000, 0.0000, 0.0000, 0.0000
1, 2.1750, 435, 0.2587, 0.5562, -0.9155, -3.8172, -30.9490, -33.0509, -24.9635, 42.1222, -77.0827, -32.9787, 11.1509, -131.4017, -0.4178, -0.0313, 0.2958, -0.8584, -0.0643, -0.0224, 0.0925, 0.0000, 0.0000, 0.0000, 0.0000
1, 2.1800, 436, 0.2479, 0.5556, -0.9404, -6.9778, -31.9374, -34.0711, -25.8696, 42.7653, -77.4920, -33.0210, 10.9264, -131.4579, -0.4170, -0.0331, 0.2954, -0.8589, -0.0574, -0.0208, 0.1172, 0.0000, 0.0000, 0.0000, 0.0000
1, 2.1850, 437, 0.2425, 0.5476, -0.9702, -10.5343, -32.8696, -34.6516, -25.8696, 42.7653, -77.4920, -33.0843, 10.6941, -131.5145, -0.4161, -0.0349, 0.2952, -0.8594, -0.0559, -0.0115, 0.1469, 0.0000, 0.0000, 0.0000, 0.0000
1, 2.1900, 438, 0.2223, 0.5729, -1.0152, -14.4041, -34.4836, -35.3138, -25.8696, 42.7653, -77.4920, -33.1664, 10.4532, -131.5691, -0.4152, -0.0370, 0.2950, -0.8598, -0.0398, -0.0353, 0.1920, 0.0000, 0.0000, 0.0000, 0.0000
1, 2.1950, 439, 0.1829, 0.6035, -1.0379, -19.7687, -36.1263, -36.7268, -26.2496, 41.4791, -77.6674, -33.2752, 10.2015, -131.6247, -0.4142, -0.0391, 0.2950, -0.8601, -0.0047, -0.0641, 0.2150, 0.0000, 0.0000, 0.0000, 0.0000
1, 2.2000, 440, 0.2161, 0.6401, -1.0865, -28.3056, -38.7643, -37.2064, -26.2496, 41.4791, -77.6674, -33.4254, 9.9374, -131.6743, -0.4133, -0.0416, 0.2953, -0.8604, -0.0424, -0.0982, 0.2642, 0.0000, 0.0000, 0.0000, 0.0000
1, 2.2050, 441, 0.2812, 0.6742, -1.1705, -39.7154, -43.7990, -36.4300, -26.2496, 41.9468, -76.8781, -33.6293, 9.6542, -131.7056, -0.4124, -0.0444, 0.2960, -0.8604, -0.1122, -0.1291, 0.3493, 0.0000, 0.0000, 0.0000, 0.0000
1, 2.2100, 442, 0.2062, 0.6731, -1.2106, -52.8003, -54.5678, -37.3250, -26.2496, 41.9468, -76.8781, -33.8939, 9.3236, -131.7092, -0.4116, -0.0479, 0.2969, -0.8603, -0.0428, -0.1240, 0.3910, 0.0000, 0.0000, 0.0000, 0.0000
1, 2.2150, 443, 0.0682, 0.6482, -1.2553, -68.4609, -54.8416, -39.1701, -26.2496, 41.9468, -76.8781, -34.2376, 8.9868, -131.7180, -0.4107, -0.0517, 0.2984, -0.8600, 0.0895, -0.0939, 0.4381, 0.0000, 0.0000, 0.0000, 0.0000
1, 2.2200, 444, 0.2193, 0.5699, -1.3081, -85.4648, -55.4164, -36.8413, -25.8404, 43.0284, -76.3519, -34.6642, 8.6541, -131.7132, -0.4098, -0.0558, 0.3005, -0.8594, -0.0674, -0.0093, 0.4940, 0.0000, 0.0000, 0.0000, 0.0000
1, 2.2250, 445, 0.2900, 0.6115, -1.3583, -100.5666, -59.8907, -34.7642, -25.8404, 43.0284, -76.3519, -35.1627, 8.3091, -131.6840, -0.4091, -0.0603, 0.3031, -0.8586, -0.1439, -0.0436, 0.5482, 0.0000, 0.0000, 0.0000, 0.0000
1, 2.2300, 446, 0.1386, 0.6815, -1.3282, -118.4033, -65.3042, -39.1699, -26.1327, 41.9176, -75.9719, -35.7480, 7.9281, -131.6536, -0.4082, -0.0654, 0.3063, -0.8575, 0.0010, -0.1052, 0.5231, 0.0000, 0.0000, 0.0000, 0.0000
1, 2.2350, 447, 0.1241, 0.6576, -1.3396, -138.3441, -63.0767, -46.3617, -26.1327, 41.9176, -75.9719, -36.4399, 7.5367, -131.6551, -0.4069, -0.0708, 0.3102, -0.8563, 0.0088, -0.0714, 0.5404, 0.0000, 0.0000, 0.0000, 0.0000
1, 2.2400, 448, 0.2792, 0.5731, -1.3588, -155.2417, -62.7473, -51.3898, -26.1327, 41.9176, -75.9719, -37.2183, 7.1315, -131.6729, -0.4053, -0.0766, 0.3147, -0.8549, -0.1532, 0.0242, 0.5667, 0.0000, 0.0000, 0.0000, 0.0000
1, 2.2450, 449, 0.3300, 0.4777, -1.4025, -170.7630, -60.4109, -57.4483, -27.1558, 42.4437, -75.0950, -38.0774, 6.7169, -131.7162, -0.4034, -0.0827, 0.3198, -0.8533, -0.2113, 0.1317, 0.6185, 0.0000, 0.0000, 0.0000, 0.0000
1, 2.2500, 450, 0.3654, 0.4499, -1.4136, -187.0329, -57.9688, -63.9169, -27.1558, 42.4437, -75.0950, -39.0204, 6.2910, -131.7860, -0.4011, -0.0890, 0.3255, -0.8516, -0.2540, 0.1725, 0.6389, 0.0000, 0.0000, 0.0000, 0.0000
1, 2.2550, 451, 0.3362, 0.5755, -1.3734, -202.7147, -57.8015, -68.9371, -27.6527, 42.8530, -74.4519, -40.0427, 5.8487, -131.8683, -0.3986, -0.0957, 0.3318, -0.8497, -0.2324, 0.0609, 0.6091, 0.0000, 0.0000, 0.0000, 0.0000
1, 2.2600, 452, 0.2565, 0.6995, -1.3721, -220.4117, -55.2950, -75.7004, -27.6527, 42.8530, -74.4519, -41.1553, 5.3924, -131.9764, -0.3956, -0.1026, 0.3386, -0.8475, -0.1605, -0.0482, 0.6194, 0.0000, 0.0000, 0.0000, 0.0000
1, 2.2650, 453, 0.2746, 0.6740, -1.3851, -240.0095, -51.9464, -82.6344, -27.6527, 42.8530, -74.4519, -42.3675, 4.9235, -132.1122, -0.3923, -0.1099, 0.3462, -0.8451, -0.1867, -0.0068, 0.6455, 0.0000, 0.0000, 0.0000, 0.0000
1, 2.2700, 454, 0.3819, 0.5608, -1.3962, -258.6335, -47.5846, -87.1951, -28.2374, 42.8530, -73.4288, -43.6735, 4.4521, -132.2692, -0.3885, -0.1174, 0.3545, -0.8424, -0.3022, 0.1233, 0.6712, 0.0000, 0.0000, 0.0000, 0.0000
1, 2.2750, 455, 0.4424, 0.4823, -1.3794, -275.5637, -42.3617, -90.0201, -28.2374, 42.8530, -73.4288, -45.0641, 3.9859, -132.4433, -0.3844, -0.1250, 0.3634, -0.8394, -0.3709, 0.2194, 0.6706, 0.0000, 0.0000, 0.0000, 0.0000
1, 2.2800, 456, 0.4252, 0.4888, -1.3217, -291.4220, -37.0923, -93.0862, -29.0558, 43.9638, -72.2303, -46.5288, 3.5257, -132.6349, -0.3800, -0.1327, 0.3729, -0.8360, -0.3617, 0.2310, 0.6304, 0.0000, 0.0000, 0.0000, 0.0000
1, 2.2850, 457, 0.3830, 0.5500, -1.2596, -307.9112, -33.2034, -95.5135, -29.0558, 43.9638, -72.2303, -48.0799, 3.0622, -132.8371, -0.3752, -0.1405, 0.3830, -0.8323, -0.3276, 0.1883, 0.5874, 0.0000, 0.0000, 0.0000, 0.0000
1, 2.2900, 458, 0.3237, 0.6303, -1.1182, -326.5851, -33.6549, -94.7439, -30.0789, 44.6068, -70.3888, -49.7220, 2.5947, -133.0220, -0.3703, -0.1487, 0.3937, -0.8281, -0.2764, 0.1270, 0.4669, 0.0000, 0.0000, 0.0000, 0.0000
1, 2.2950, 459, 0.2243, 0.7393, -1.1350, -351.6351, -39.9933, -91.5207, -30.0789, 44.6068, -70.3888, -51.4857, 2.1142, -133.1580, -0.3653, -0.1574, 0.4051, -0.8232, -0.1853, 0.0377, 0.5067, 0.0000, 0.0000, 0.0000, 0.0000
1, 2.3000, 460, 0.1305, 0.9115, -1.1220, -376.4126, -45.0516, -82.6341, -30.0789, 44.6068, -70.3888, -53.3702, 1.6496, -133.2316, -0.3605, -0.1664, 0.4173, -0.8174, -0.0997, -0.1145, 0.5190, 0.0000, 0.0000, 0.0000, 0.0000
1, 2.3050, 461, 0.2930, 1.0899, -0.9696, -390.5198, -50.4438, -72.1843, -30.4297, 44.4899, -69.2195, -55.3229, 1.2094, -133.2371, -0.3560, -0.1756, 0.4298, -0.8110, -0.2700, -0.2727, 0.3938, 0.0000, 0.0000, 0.0000, 0.0000
1, 2.3100, 462, 0.3745, 1.2434, -0.9497, -383.6781, -46.7096, -70.9258, -30.4297, 44.4899, -69.2195, -57.2413, 0.7848, -133.2397, -0.3513, -0.1846, 0.4421, -0.8044, -0.3590, -0.4071, 0.4017, 0.0000, 0.0000, 0.0000, 0.0000
1, 2.3150, 463, 0.2108, 1.5265, -0.7562, -354.0656, -34.3491, -72.2704, -31.6282, 44.5191, -67.9333, -59.0120, 0.3869, -133.2846, -0.3466, -0.1926, 0.4533, -0.7983, -0.2024, -0.6732, 0.2350, 0.0000, 0.0000, 0.0000, 0.0000
1, 2.3200, 464, 0.1539, 1.7914, -0.6639, -289.0446, 0.0285, -77.0452, -31.6282, 44.5191, -67.9333, -60.4579, 0.0540, -133.4789, -0.3414, -0.1984, 0.4627, -0.7937, -0.1516, -0.9243, 0.1657, 0.0000, 0.0000, 0.0000, 0.0000
1, 2.3250, 465, 0.3814, 2.0250, -0.6579, -215.4753, 28.5606, -61.7775, -31.6282, 44.5191, -67.9333, -61.5350, -0.1471, -133.7537, -0.3368, -0.2019, 0.4700, -0.7905, -0.3833, -1.1480, 0.1775, 0.0000, 0.0000, 0.0000, 0.0000
1, 2.3300, 466, 0.6105, 1.9932, -0.6676, -151.8070, 48.7065, -52.7668, -31.5989, 45.4545, -66.9687, -62.2937, -0.2633, -134.0926, -0.3327, -0.2035, 0.4755, -0.7885, -0.6146, -1.1093, 0.1999, 0.0000, 0.0000, 0.0000, 0.0000
1, 2.3350, 467, 0.6047, 1.5607, -0.5477, -101.3724, 68.0733, -67.8456, -31.5989, 45.4545, -66.9687, -62.7979, -0.4076, -134.5510, -0.3280, -0.2041, 0.4794, -0.7880, -0.6112, -0.6722, 0.0889, 0.0000, 0.0000, 0.0000, 0.0000
1, 2.3400, 468, 0.2523, 1.1752, -0.4105, -53.3817, 64.0723, -72.4688, -32.6220, 45.0453, -67.2610, -63.0610, -0.5845, -135.0011, -0.3237, -0.2041, 0.4815, -0.7885, -0.2617, -0.2842, -0.0434, 0.0000, 0.0000, 0.0000, 0.0000
1, 2.3450, 469, -0.0474, 1.0510, -0.2530, -17.3905, 27.7615, -64.1247, -32.6220, 45.0453, -67.2610, -63.1447, -0.8077, -135.2699, -0.3208, -0.2048, 0.4819, -0.7893, 0.0343, -0.1591, -0.1989, 0.0000, 0.0000, 0.0000, 0.0000
1, 2.3500, 470, -0.0002, 1.2393, -0.2376, 13.4111, -4.4976, -37.8510, -32.6220, 45.0453, -67.2610, -63.0766, -0.9866, -135.3354, -0.3197, -0.2055, 0.4810, -0.7900, -0.0164, -0.3476, -0.2147, 0.0000, 0.0000, 0.0000, 0.0000
1, 2.3550, 471, -0.2617, 1.2096, -0.3629, 28.7463, 17.9484, -29.3254, -32.7974, 44.4899, -67.9918, -62.9302, -1.0765, -135.4820, -0.3185, -0.2051, 0.4800, -0.7912, 0.2433, -0.3189, -0.0915, 0.0000, 0.0000, 0.0000, 0.0000
1, 2.3600, 472, -0.6382, 0.7668, -0.2404, 29.5205, 49.7753, -39.2013, -32.7974, 44.4899, -67.9918, -62.7766, -1.1374, -135.7929, -0.3164, -0.2038, 0.4793, -0.7928, 0.6186, 0.1226, -0.2164, 0.0000, 0.0000, 0.0000, 0.0000
1, 2.3650, 473, -0.4518, 0.6325, -0.1030, 31.2502, 67.0439, -38.4553, -32.6513, 44.4899, -69.0441, -62.6126, -1.1544, -136.1791, -0.3140, -0.2019, 0.4788, -0.7946, 0.4317, 0.2556, -0.3562, 0.0000, 0.0000, 0.0000, 0.0000
1, 2.3700, 474, 0.1260, 0.8917, 0.0392, 38.7987, 67.8374, -36.4429, -32.6513, 44.4899, -69.0441, -62.4108, -1.1596, -136.5641, -0.3116, -0.1998, 0.4781, -0.7965, -0.1462, -0.0051, -0.5014, 0.0000, 0.0000, 0.0000, 0.0000
1, 2.3750, 475, 0.1971, 1.1317, -0.0980, 47.6211, 71.2771, -43.2441, -32.6513, 44.4899, -69.0441, -62.1642, -1.1853, -136.9803, -0.3090, -0.1975, 0.4770, -0.7987, -0.2176, -0.2471, -0.3678, 0.0000, 0.0000, 0.0000, 0.0000
1, 2.3800, 476, -0.0880, 0.8536, -0.1533, 52.4132, 54.8469, -49.3408, -32.0374, 42.8530, -69.2195, -61.9080, -1.2806, -137.3382, -0.3066, -0.1960, 0.4756, -0.8009, 0.0662, 0.0289, -0.3165, 0.0000, 0.0000, 0.0000, 0.0000
1, 2.3850, 477, -0.3056, 0.9255, -0.0542, 59.6392, 43.3109, -36.1906, -32.0374, 42.8530, -69.2195, -61.6035, -1.3376, -137.6146, -0.3049, -0.1945, 0.4738, -0.8030, 0.2824, -0.0454, -0.4201, 0.0000, 0.0000, 0.0000, 0.0000
1, 2.3900, 478, -0.2365, 0.8867, -0.0888, 64.8540, 48.5209, -34.3598, -33.0020, 43.4376, -70.7103, -61.2722, -1.3725, -137.9099, -0.3033, -0.1926, 0.4719, -0.8052, 0.2126, -0.0094, -0.3904, 0.0000, 0.0000, 0.0000, 0.0000
1, 2.3950, 479, -0.1466, 0.8368, -0.0343, 66.6988, 46.1325, -22.1908, -33.0020, 43.4376, -70.7103, -60.9326, -1.3582, -138.1655, -0.3021, -0.1905, 0.4699, -0.8072, 0.1228, 0.0377, -0.4502, 0.0000, 0.0000, 0.0000, 0.0000
1, 2.4000, 480, -0.1726, 0.7425, -0.0106, 65.4647, 45.2369, -17.2463, -33.0020, 44.0807, -71.7626, -60.5997, -1.3229, -138.4051, -0.3011, -0.1884, 0.4681, -0.8092, 0.1494, 0.1292, -0.4790, 0.0000, 0.0000, 0.0000, 0.0000
1, 2.4050, 481, -0.1705, 0.6600, 0.0352, 62.3438, 40.8970, -12.7567, -33.0020, 44.0807, -71.7626, -60.2832, -1.2776, -138.6145, -0.3003, -0.1864, 0.4663, -0.8109, 0.1480, 0.2089, -0.5296, 0.0000, 0.0000, 0.0000, 0.0000
1, 2.4100, 482, -0.1637, 0.6314, 0.0679, 58.1217, 36.3213, -8.7599, -33.0020, 44.0807, -71.7626, -59.9887, -1.2251, -138.7938, -0.2997, -0.1846, 0.4647, -0.8125, 0.1421, 0.2350, -0.5669, 0.0000, 0.0000, 0.0000, 0.0000
1, 2.4150, 483, -0.1772, 0.6052, 0.0822, 51.7877, 33.4124, -6.9639, -32.4467, 43.1160, -72.0842, -59.7264, -1.1713, -138.9558, -0.2992, -0.1829, 0.4632, -0.8139, 0.1565, 0.2588, -0.5853, 0.0000, 0.0000, 0.0000, 0.0000
1, 2.4200, 484, -0.2186, 0.5666, 0.0837, 43.4512, 30.9747, -5.5522, -32.4467, 43.1160, -72.0842, -59.5062, -1.1170, -139.1035, -0.2988, -0.1813, 0.4620, -0.8151, 0.1988, 0.2953, -0.5903, 0.0000, 0.0000, 0.0000, 0.0000
1, 2.4250, 485, -0.2427, 0.5230, 0.0747, 34.6415, 29.8120, -4.9929, -32.3882, 42.7653, -72.1719, -59.3303, -1.0626, -139.2445, -0.2983, -0.1799, 0.4611, -0.8161, 0.2239, 0.3374, -0.5841, 0.0000, 0.0000, 0.0000, 0.0000
1, 2.4300, 486, -0.2437, 0.4997, 0.0498, 26.6825, 29.2004, -4.4378, -32.3882, 42.7653, -72.1719, -59.2152, -1.0237, -139.3816, -0.2976, -0.1788, 0.4606, -0.8169, 0.2257, 0.3594, -0.5613, 0.0000, 0.0000, 0.0000, 0.0000
1, 2.4350, 487, -0.2358, 0.5158, 0.0261, 19.5467, 28.5309, -4.0978, -32.3882, 42.7653, -72.1719, -59.1151, -0.9682, -139.5146, -0.2970, -0.1776, 0.4603, -0.8175, 0.2187, 0.3424, -0.5390, 0.0000, 0.0000, 0.0000, 0.0000
1, 2.4400, 488, -0.2189, 0.5495, 0.0057, 14.4875, 27.4356, -3.8943, -32.4759, 43.0284, -72.3473, -59.0406, -0.9144, -139.6423, -0.2965, -0.1765, 0.4601, -0.8181, 0.2027, 0.3080, -0.5198, 0.0000, 0.0000, 0.0000, 0.0000
1, 2.4450, 489, -0.2059, 0.5660, -0.0278, 12.2452, 26.8427, -3.9743, -32.4759, 43.0284, -72.3473, -58.9774, -0.8623, -139.7676, -0.2959, -0.1754, 0.4600, -0.8186, 0.1906, 0.2910, -0.4873, 0.0000, 0.0000, 0.0000, 0.0000
1, 2.4500, 490, -0.2118, 0.5676, -0.0499, 11.5352, 26.3918, -3.8256, -32.3005, 42.9991, -73.3119, -58.9179, -0.8106, -139.8905, -0.2953, -0.1744, 0.4599, -0.8191, 0.1975, 0.2888, -0.4661, 0.0000, 0.0000, 0.0000, 0.0000
1, 2.4550, 491, -0.2187, 0.5622, -0.0657, 12.1561, 24.7095, -3.0033, -32.3005, 42.9991, -73.3119, -58.8556, -0.7597, -140.0041, -0.2948, -0.1734, 0.4597, -0.8196, 0.2052, 0.2937, -0.4512, 0.0000, 0.0000, 0.0000, 0.0000
1, 2.4600, 492, -0.2198, 0.5437, -0.0785, 14.2102, 22.4533, -1.9566, -32.3005, 42.9991, -73.3119, -58.7832, -0.7099, -140.1052, -0.2944, -0.1725, 0.4595, -0.8200, 0.2072, 0.3116, -0.4395, 0.0000, 0.0000, 0.0000, 0.0000
1, 2.4650, 493, -0.2291, 0.5135, -0.0877, 16.0809, 20.8157, -1.2296, -32.0082, 41.7714, -72.9611, -58.7017, -0.6612, -140.1974, -0.2940, -0.1716, 0.4592, -0.8205, 0.2174, 0.3411, -0.4315, 0.0000, 0.0000, 0.0000, 0.0000
1, 2.4700, 494, -0.2458, 0.4823, -0.0850, 18.3391, 19.7648, -0.7324, -32.0082, 41.7714, -72.9611, -58.6091, -0.6129, -140.2837, -0.2938, -0.1706, 0.4588, -0.8211, 0.2349, 0.3715, -0.4355, 0.0000, 0.0000, 0.0000, 0.0000
1, 2.4750, 495, -0.2508, 0.4472, -0.0814, 20.2406, 18.7124, -0.2827, -31.4820, 41.8006, -73.9550, -58.5070, -0.5653, -140.3643, -0.2935, -0.1697, 0.4583, -0.8216, 0.2407, 0.4057, -0.4406, 0.0000, 0.0000, 0.0000, 0.0000
1, 2.4800, 496, -0.2502, 0.4046, -0.0887, 21.2489, 17.8995, -0.1783, -31.4820, 41.8006, -73.9550, -58.4086, -0.5370, -140.4417, -0.2932, -0.1690, 0.4578, -0.8222, 0.2408, 0.4474, -0.4348, 0.0000, 0.0000, 0.0000, 0.0000
1, 2.4850, 497, -0.2755, 0.3667, -0.0987, 21.6729, 18.3827, -0.3372, -31.4820, 41.8006, -73.9550, -58.2995, -0.4902, -140.5209, -0.2930, -0.1680, 0.4572, -0.8227, 0.2667, 0.4844, -0.4264, 0.0000, 0.0000, 0.0000, 0.0000
1, 2.4900, 498, -0.3271, 0.3480, -0.1047, 21.3288, 20.2477, -0.0330, -31.1897, 41.8299, -73.6042, -58.1922, -0.4371, -140.6070, -0.2928, -0.1670, 0.4567, -0.8233, 0.3192, 0.5021, -0.4220, 0.0000, 0.0000, 0.0000, 0.0000
1, 2.4950, 499, -0.3270, 0.3456, -0.1062, 20.9834, 21.8248, 1.0035, -31.1897, 41.8299, -73.6042, -58.0866, -0.3752, -140.6971, -0.2925, -0.1660, 0.4562, -0.8239, 0.3202, 0.5035, -0.4221, 0.0000, 0.0000, 0.0000, 0.0000
1, 2.5000, 500, -0.3061, 0.3424, -0.1096, 21.0761, 22.5537, 2.0195, -31.3651, 41.0699, -73.7211, -57.9807, -0.3070, -140.7874, -0.2923, -0.1648, 0.4558, -0.8244, 0.3005, 0.5057, -0.4202, 0.0000, 0.0000, 0.0000, 0.0000
1, 2.5050, 501, -0.2924, 0.3381, -0.1153, 21.9846, 24.2256, 2.1933, -31.3651, 41.0699, -73.7211, -57.8703, -0.2333, -140.8842, -0.2920, -0.1636, 0.4553, -0.8250, 0.2880, 0.5089, -0.4161, 0.0000, 0.0000, 0.0000, 0.0000
1, 2.5100, 502, -0.2918, 0.3382, -0.1332, 23.0774, 25.4587, 2.2336, -31.1605, 41.6837, -74.0719, -57.7546, -0.1561, -140.9860, -0.2918, -0.1624, 0.4548, -0.8256, 0.2887, 0.5078, -0.3999, 0.0000, 0.0000, 0.0000, 0.0000
1, 2.5150, 503, -0.2892, 0.3519, -0.1450, 26.1403, 25.9842, 2.5519, -31.1605, 41.6837, -74.0719, -57.6237, -0.0759, -141.0890, -0.2915, -0.1611, 0.4542, -0.8263, 0.2875, 0.4930, -0.3900, 0.0000, 0.0000, 0.0000, 0.0000
1, 2.5200, 504, -0.2846, 0.3730, -0.1420, 30.1709, 26.0336, 3.1480, -31.1605, 41.6837, -74.0719, -57.4728, 0.0073, -141.1904, -0.2914, -0.1597, 0.4535, -0.8270, 0.2844, 0.4705, -0.3951, 0.0000, 0.0000, 0.0000, 0.0000
1, 2.5250, 505, -0.2778, 0.3739, -0.1362, 34.6671, 25.8437, 3.9348, -30.9851, 41.9176, -75.1242, -57.2995, 0.0935, -141.2886, -0.2912, -0.1582, 0.4526, -0.8278, 0.2791, 0.4681, -0.4034, 0.0000, 0.0000, 0.0000, 0.0000
1, 2.5300, 506, -0.2698, 0.3473, -0.1261, 38.6285, 26.0066, 3.9704, -30.9851, 41.9176, -75.1242, -57.1116, 0.1638, -141.3880, -0.2910, -0.1569, 0.4515, -0.8287, 0.2724, 0.4928, -0.4162, 0.0000, 0.0000, 0.0000, 0.0000
1, 2.5350, 507, -0.2649, 0.2998, -0.1230, 42.2088, 25.6773, 2.9801, -31.3651, 41.2745, -75.2704, -56.9009, 0.2463, -141.4876, -0.2909, -0.1553, 0.4504, -0.8297, 0.2688, 0.5384, -0.4223, 0.0000, 0.0000, 0.0000, 0.0000
1, 2.5400, 508, -0.2661, 0.2735, -0.1082, 44.3564, 25.8531, 1.8002, -31.3651, 41.2745, -75.2704, -56.6796, 0.3246, -141.5908, -0.2908, -0.1538, 0.4491, -0.8307, 0.2714, 0.5627, -0.4403, 0.0000, 0.0000, 0.0000, 0.0000
1, 2.5450, 509, -0.2542, 0.2701, -0.1025, 46.2422, 27.4727, -0.0849, -31.3651, 41.2745, -75.2704, -56.4491, 0.3999, -141.7057, -0.2906, -0.1522, 0.4478, -0.8318, 0.2608, 0.5638, -0.4493, 0.0000, 0.0000, 0.0000, 0.0000
1, 2.5500, 510, -0.2410, 0.2872, -0.1027, 47.9341, 30.4182, -1.9054, -31.1605, 41.3329, -74.9488, -56.2105, 0.4763, -141.8375, -0.2902, -0.1505, 0.4464, -0.8330, 0.2490, 0.5445, -0.4526, 0.0000, 0.0000, 0.0000, 0.0000
1, 2.5550, 511, -0.2248, 0.3004, -0.1059, 50.1753, 31.0778, -1.7555, -31.1605, 41.3329, -74.9488, -55.9608, 0.5557, -141.9714, -0.2899, -0.1488, 0.4450, -0.8342, 0.2342, 0.5288, -0.4530, 0.0000, 0.0000, 0.0000, 0.0000
1, 2.5600, 512, -0.1850, 0.2844, -0.0974, 50.6387, 30.7950, -1.1115, -30.9851, 41.1868, -75.5042, -55.7090, 0.6376, -142.1019, -0.2896, -0.1471, 0.4435, -0.8354, 0.1958, 0.5423, -0.4651, 0.0000, 0.0000, 0.0000, 0.0000
1, 2.5650, 513, -0.1554, 0.2476, -0.0915, 49.4702, 29.7940, -0.8749, -30.9851, 41.1868, -75.5042, -55.4631, 0.7182, -142.2273, -0.2893, -0.1454, 0.4421, -0.8365, 0.1676, 0.5767, -0.4745, 0.0000, 0.0000, 0.0000, 0.0000
1, 2.5700, 514, -0.1505, 0.2143, -0.0870, 45.8462, 28.2379, -0.9702, -30.9851, 41.1868, -75.5042, -55.2354, 0.7945, -142.3462, -0.2890, -0.1438, 0.4407, -0.8376, 0.1640, 0.6077, -0.4823, 0.0000, 0.0000, 0.0000, 0.0000
1, 2.5750, 515, -0.1533, 0.2149, -0.0972, 41.6434, 27.4655, -1.2593, -30.3128, 41.5376, -76.0596, -55.0289, 0.8678, -142.4625, -0.2887, -0.1423, 0.4396, -0.8386, 0.1682, 0.6049, -0.4752, 0.0000, 0.0000, 0.0000, 0.0000
1, 2.5800, 516, -0.1618, 0.2738, -0.1163, 37.7668, 29.1370, -1.0105, -30.3128, 41.5376, -76.0596, -54.8466, 0.9366, -142.5852, -0.2882, -0.1408, 0.4385, -0.8395, 0.1779, 0.5441, -0.4588, 0.0000, 0.0000, 0.0000, 0.0000
1, 2.5850, 517, -0.1712, 0.3443, -0.1317, 34.0276, 30.2936, 1.0917, -30.8097, 41.1868, -75.5335, -54.6785, 1.0284, -142.7058, -0.2879, -0.1393, 0.4377, -0.8403, 0.1888, 0.4719, -0.4458, 0.0000, 0.0000, 0.0000, 0.0000
1, 2.5900, 518, -0.1332, 0.3783, -0.1775, 30.8963, 30.6079, 4.5751, -30.8097, 41.1868, -75.5335, -54.5262, 1.1357, -142.8173, -0.2877, -0.1377, 0.4370, -0.8410, 0.1526, 0.4363, -0.4022, 0.0000, 0.0000, 0.0000, 0.0000
1, 2.5950, 519, -0.0949, 0.3940, -0.2173, 28.6019, 28.8932, 9.2368, -30.8097, 41.1868, -75.5335, -54.3850, 1.2573, -142.9080, -0.2876, -0.1361, 0.4363, -0.8416, 0.1163, 0.4191, -0.3644, 0.0000, 0.0000, 0.0000, 0.0000
1, 2.6000, 520, -0.0933, 0.4188, -0.2533, 28.2526, 28.8265, 13.9345, -30.7512, 40.5729, -75.4458, -54.2456, 1.3980, -142.9845, -0.2878, -0.1344, 0.4357, -0.8422, 0.1171, 0.3928, -0.3303, 0.0000, 0.0000, 0.0000, 0.0000
1, 2.6050, 521, -0.0879, 0.4646, -0.2926, 28.6416, 29.5036, 19.1477, -30.7512, 40.5729, -75.4458, -54.1040, 1.5619, -143.0481, -0.2881, -0.1326, 0.4352, -0.8426, 0.1144, 0.3456, -0.2930, 0.0000, 0.0000, 0.0000, 0.0000
1, 2.6100, 522, -0.0613, 0.4990, -0.3257, 28.9964, 29.7252, 24.9523, -30.6051, 40.7483, -75.7089, -53.9604, 1.7502, -143.0951, -0.2886, -0.1307, 0.4346, -0.8431, 0.0910, 0.3096, -0.2619, 0.0000, 0.0000, 0.0000, 0.0000
1, 2.6150, 523, -0.0365, 0.5161, -0.3587, 29.4271, 29.7509, 30.3755, -30.6051, 40.7483, -75.7089, -53.8142, 1.9605, -143.1258, -0.2893, -0.1286, 0.4341, -0.8434, 0.0697, 0.2909, -0.2309, 0.0000, 0.0000, 0.0000, 0.0000
1, 2.6200, 524, -0.0239, 0.5250, -0.3699, 30.7258, 29.0426, 35.3400, -29.7866, 41.3622, -76.7612, -53.6610, 2.1889, -143.1383, -0.2903, -0.1265, 0.4335, -0.8437, 0.0611, 0.2804, -0.2217, 0.0000, 0.0000, 0.0000, 0.0000
1, 2.6250, 525, -0.0218, 0.5247, -0.3880, 31.8473, 29.1171, 38.6594, -29.7866, 41.3622, -76.7612, -53.5019, 2.4309, -143.1407, -0.2913, -0.1243, 0.4329, -0.8440, 0.0631, 0.2790, -0.2057, 0.0000, 0.0000, 0.0000, 0.0000
1, 2.6300, 526, -0.0420, 0.5451, -0.4032, 33.1814, 29.8607, 41.0103, -29.7866, 41.3622, -76.7612, -53.3361, 2.6794, -143.1387, -0.2924, -0.1220, 0.4323, -0.8442, 0.0877, 0.2567, -0.1927, 0.0000, 0.0000, 0.0000, 0.0000
1, 2.6350, 527, -0.0557, 0.6085, -0.4178, 35.1480, 31.9542, 42.5478, -29.7866, 41.4499, -76.4981, -53.1604, 2.9454, -143.1394, -0.2936, -0.1196, 0.4316, -0.8445, 0.1059, 0.1913, -0.1804, 0.0000, 0.0000, 0.0000, 0.0000
1, 2.6400, 528, -0.0292, 0.6753, -0.4360, 38.3605, 34.5034, 43.8858, -29.7866, 41.4499, -76.4981, -52.9689, 3.2245, -143.1455, -0.2947, -0.1170, 0.4309, -0.8449, 0.0842, 0.1223, -0.1646, 0.0000, 0.0000, 0.0000, 0.0000
1, 2.6450, 529, 0.0127, 0.7102, -0.4461, 42.2940, 36.7992, 44.5512, -29.6697, 41.1868, -76.2058, -52.7582, 3.5131, -143.1577, -0.2959, -0.1143, 0.4300, -0.8453, 0.0473, 0.0850, -0.1572, 0.0000, 0.0000, 0.0000, 0.0000
1, 2.6500, 530, 0.0280, 0.7073, -0.4751, 46.2369, 38.9865, 43.8909, -29.6697, 41.1868, -76.2058, -52.5284, 3.8058, -143.1796, -0.2970, -0.1114, 0.4290, -0.8458, 0.0371, 0.0853, -0.1312, 0.0000, 0.0000, 0.0000, 0.0000
1, 2.6550, 531, 0.0263, 0.7301, -0.5020, 51.7734, 42.3078, 43.2884, -29.6697, 41.1868, -76.2058, -52.2720, 4.1064, -143.2152, -0.2981, -0.1084, 0.4279, -0.8464, 0.0440, 0.0596, -0.1075, 0.0000, 0.0000, 0.0000, 0.0000
1, 2.6600, 532, 0.0201, 0.8130, -0.5517, 58.6696, 48.0372, 43.6442, -29.2020, 41.8299, -76.6443, -51.9828, 4.4261, -143.2710, -0.2990, -0.1050, 0.4265, -0.8471, 0.0556, -0.0266, -0.0614, 0.0000, 0.0000, 0.0000, 0.0000
1, 2.6650, 533, 0.0601, 0.8990, -0.6066, 67.0183, 53.3467, 46.6327, -29.2020, 41.8299, -76.6443, -51.6530, 4.7743, -143.3367, -0.3001, -0.1013, 0.4250, -0.8480, 0.0216, -0.1165, -0.0105, 0.0000, 0.0000, 0.0000, 0.0000
1, 2.6700, 534, 0.1379, 0.9245, -0.6351, 76.2085, 55.7582, 51.6359, -28.6466, 42.9699, -76.3812, -51.2769, 5.1499, -143.3942, -0.3013, -0.0973, 0.4231, -0.8490, -0.0498, -0.1464, 0.0133, 0.0000, 0.0000, 0.0000, 0.0000
1, 2.6750, 535, 0.1962, 0.8682, -0.6277, 82.6079, 55.0675, 57.4437, -28.6466, 42.9699, -76.3812, -50.8670, 5.5463, -143.4281, -0.3027, -0.0931, 0.4210, -0.8500, -0.1013, -0.0949, 0.0008, 0.0000, 0.0000, 0.0000, 0.0000
1, 2.6800, 536, 0.2059, 0.7762, -0.6342, 84.9246, 52.4476, 62.9303, -28.6466, 42.9699, -76.3812, -50.4424, 5.9593, -143.4312, -0.3045, -0.0889, 0.4188, -0.8509, -0.1039, -0.0081, 0.0021, 0.0000, 0.0000, 0.0000, 0.0000
1, 2.6850, 537, 0.1884, 0.7626, -0.6572, 83.3507, 50.2649, 67.4076, -28.5297, 42.5899, -76.9658, -50.0232, 6.3791, -143.4086, -0.3064, -0.0846, 0.4166, -0.8517, -0.0791, 0.0003, 0.0199, 0.0000, 0.0000, 0.0000, 0.0000
1, 2.6900, 538, 0.2263, 0.8609, -0.7102, 80.7687, 48.0452, 73.3145, -28.5297, 42.5899, -76.9658, -49.6132, 6.8141, -143.3553, -0.3085, -0.0804, 0.4145, -0.8523, -0.1096, -0.1033, 0.0680, 0.0000, 0.0000, 0.0000, 0.0000
1, 2.6950, 539, 0.3133, 0.9650, -0.7438, 77.6643, 43.7078, 80.9448, -27.6527, 42.6776, -77.2289, -49.2129, 7.2636, -143.2572, -0.3110, -0.0763, 0.4125, -0.8528, -0.1888, -0.2126, 0.0969, 0.0000, 0.0000, 0.0000, 0.0000
1, 2.7000, 540, 0.4164, 0.9723, -0.7736, 74.3298, 36.9239, 89.8199, -27.6527, 42.6776, -77.2289, -48.8208, 7.7237, -143.1006, -0.3139, -0.0723, 0.4105, -0.8530, -0.2840, -0.2252, 0.1223, 0.0000, 0.0000, 0.0000, 0.0000
1, 2.7050, 541, 0.4360, 0.9117, -0.7794, 68.7670, 28.5339, 98.1955, -27.6527, 42.6776, -77.2289, -48.4465, 8.1865, -142.8811, -0.3173, -0.0685, 0.4087, -0.8530, -0.2956, -0.1697, 0.1239, 0.0000, 0.0000, 0.0000, 0.0000
1, 2.7100, 542, 0.4242, 0.8899, -0.7838, 60.7752, 20.7611, 105.5788, -27.6235, 41.6545, -77.5504, -48.1021, 8.6495, -142.6043, -0.3210, -0.0651, 0.4070, -0.8527, -0.2758, -0.1528, 0.1244, 0.0000, 0.0000, 0.0000, 0.0000
1, 2.7150, 543, 0.4228, 0.9520, -0.7810, 51.6709, 13.6332, 112.7143, -27.6235, 41.6545, -77.5504, -47.7926, 9.1136, -142.2734, -0.3251, -0.0618, 0.4056, -0.8520, -0.2664, -0.2195, 0.1185, 0.0000, 0.0000, 0.0000, 0.0000
1, 2.7200, 544, 0.4572, 1.0081, -0.7840, 42.5994, 6.8853, 119.6072, -27.2143, 43.0284, -77.2581, -47.5175, 9.5788, -141.8909, -0.3296, -0.0588, 0.4044, -0.8511, -0.2928, -0.2799, 0.1187, 0.0000, 0.0000, 0.0000, 0.0000
1, 2.7250, 545, 0.5034, 1.0478, -0.7984, 34.7259, 1.9664, 125.7772, -27.2143, 43.0284, -77.2581, -47.2715, 10.0483, -141.4662, -0.3343, -0.0560, 0.4035, -0.8499, -0.3310, -0.3236, 0.1308, 0.0000, 0.0000, 0.0000, 0.0000
1, 2.7300, 546, 0.5262, 1.0970, -0.8332, 29.3799, -2.0047, 131.4446, -26.6881, 42.5899, -76.8196, -47.0441, 10.5274, -141.0046, -0.3393, -0.0534, 0.4027, -0.8485, -0.3455, -0.3765, 0.1636, 0.0000, 0.0000, 0.0000, 0.0000
