SensorId, TimeStamp (s), FrameNumber, AccX (g), AccY (g), AccZ (g), GyroX (deg/s), GyroY (deg/s), GyroZ (deg/s), MagX (uT), MagY (uT), MagZ (uT), EulerX (deg), EulerY (deg), EulerZ (deg), QuatW, QuatX, QuatY, QuatZ, LinAccX (g), LinAccY (g), LinAccZ (g), Pressure (kPa), Altitude (m), Temperature (degC), HeaveMotion (m)
1, 0.0000, 0, 0.3356, -0.5866, -0.7416, -0.1876, 0.3325, -0.2493, 0.0000, 0.0000, 0.0000, 0.0000, 0.0000, 0.0000, -0.8246, 0.1930, 0.3101, 0.4321, 0.0092, 0.0003, 0.0085, 0.0000, 0.0000, 0.0000, 0.0000
2, -0.0000, 0, -0.5070, -0.5378, -0.6669, 0.1727, 0.4454, -0.7729, 0.0000, 0.0000, 0.0000, 0.0000, 0.0000, 0.0000, 0.8164, -0.1357, 0.3831, 0.4101, -0.0073, 0.0020, -0.0027, 0.0000, 0.0000, 0.0000, 0.0000
3, -0.0000, 0, -0.2049, -0.9744, -0.0826, 2.1444, 0.6629, 0.5525, 0.0000, 0.0000, 0.0000, 0.0000, 0.0000, 0.0000, -0.3432, 0.4508, 0.5141, 0.6440, -0.0228, 0.0029, 0.0175, 0.0000, 0.0000, 0.0000, 0.0000
3, 0.0100, 1, -0.2075, -0.9719, -0.0837, 1.9696, 0.8914, 0.5319, 0.0000, 0.0000, 0.0000, 0.0000, 0.0000, 0.0000, -0.3430, 0.4509, 0.5142, 0.6439, -0.0203, 0.0004, 0.0190, 0.0000, 0.0000, 0.0000, 0.0000
1, 0.0100, 1, 0.3408, -0.5901, -0.7350, -0.2228, 0.4186, -0.3020, 0.0000, 0.0000, 0.0000, 0.0000, 0.0000, 0.0000, -0.8246, 0.1929, 0.3101, 0.4321, 0.0038, 0.0040, 0.0018, 0.0000, 0.0000, 0.0000, 0.0000
2, 0.0100, 1, -0.5045, -0.5394, -0.6696, 0.2800, 0.4116, -0.7517, 0.0000, 0.0000, 0.0000, 0.0000, 0.0000, 0.0000, 0.8164, -0.1357, 0.3831, 0.4102, -0.0097, 0.0035, 0.0000, 0.0000, 0.0000, 0.0000, 0.0000
1, 0.0200, 2, 0.3407, -0.5924, -0.7387, -0.1689, 0.2823, -0.3015, 0.0000, 0.0000, 0.0000, 0.0000, 0.0000, 0.0000, -0.8246, 0.1929, 0.3101, 0.4321, 0.0040, 0.0063, 0.0055, 0.0000, 0.0000, 0.0000, 0.0000
3, 0.0200, 2, -0.2100, -0.9702, -0.0833, 2.1623, 0.7842, 0.5693, 0.0000, 0.0000, 0.0000, 0.0000, 0.0000, 0.0000, -0.3431, 0.4507, 0.5143, 0.6439, -0.0178, -0.0013, 0.0187, 0.0000, 0.0000, 0.0000, 0.0000
2, 0.0200, 2, -0.5052, -0.5406, -0.6678, 0.3685, 0.4803, -0.7485, 0.0000, 0.0000, 0.0000, 0.0000, 0.0000, 0.0000, 0.8164, -0.1358, 0.3831, 0.4102, -0.0089, 0.0046, -0.0019, 0.0000, 0.0000, 0.0000, 0.0000
3, 0.0300, 3, -0.2116, -0.9676, -0.0763, 2.1622, 0.5245, 0.5012, 0.0000, 0.0000, 0.0000, 0.0000, 0.0000, 0.0000, -0.3430, 0.4508, 0.5144, 0.6438, -0.0159, -0.0040, 0.0118, 0.0000, 0.0000, 0.0000, 0.0000
1, 0.0300, 3, 0.3381, -0.5880, -0.7374, -0.1214, 0.1135, -0.0364, 0.0000, 0.0000, 0.0000, 0.0000, 0.0000, 0.0000, -0.8246, 0.1929, 0.3101, 0.4321, 0.0066, 0.0019, 0.0042, 0.0000, 0.0000, 0.0000, 0.0000
2, 0.0300, 3, -0.5077, -0.5372, -0.6657, 0.3147, 0.5144, -0.7678, 0.0000, 0.0000, 0.0000, 0.0000, 0.0000, 0.0000, 0.8164, -0.1360, 0.3831, 0.4102, -0.0063, 0.0010, -0.0039, 0.0000, 0.0000, 0.0000, 0.0000
1, 0.0400, 4, 0.3386, -0.5905, -0.7381, -0.1080, 0.1019, 0.0359, 0.0000, 0.0000, 0.0000, 0.0000, 0.0000, 0.0000, -0.8246, 0.1929, 0.3101, 0.4321, 0.0061, 0.0044, 0.0048, 0.0000, 0.0000, 0.0000, 0.0000
2, 0.0400, 4, -0.5052, -0.5413, -0.6667, 0.0468, 0.4942, -0.7075, 0.0000, 0.0000, 0.0000, 0.0000, 0.0000, 0.0000, 0.8164, -0.1361, 0.3830, 0.4103, -0.0086, 0.0048, -0.0028, 0.0000, 0.0000, 0.0000, 0.0000
2, 0.0500, 5, -0.4996, -0.5402, -0.6694, 0.2956, 0.4921, -0.5243, 0.0000, 0.0000, 0.0000, 0.0000, 0.0000, 0.0000, 0.8164, -0.1361, 0.3830, 0.4103, -0.0141, 0.0037, -0.0001, 0.0000, 0.0000, 0.0000, 0.0000
2, 0.0600, 6, -0.5031, -0.5366, -0.6701, 0.1888, 0.3863, -0.3886, 0.0000, 0.0000, 0.0000, 0.0000, 0.0000, 0.0000, 0.8164, -0.1362, 0.3830, 0.4103, -0.0105, 0.0001, 0.0005, 0.0000, 0.0000, 0.0000, 0.0000
3, 0.0400, 4, -0.2130, -0.9683, -0.0759, 2.1458, 0.6471, 0.4652, 0.0000, 0.0000, 0.0000, 0.0000, 0.0000, 0.0000, -0.3429, 0.4508, 0.5146, 0.6438, -0.0146, -0.0034, 0.0119, 0.0000, 0.0000, 0.0000, 0.0000
3, 0.0500, 5, -0.2161, -0.9688, -0.0767, 2.0205, 0.4907, 0.5351, 0.0000, 0.0000, 0.0000, 0.0000, 0.0000, 0.0000, -0.3427, 0.4509, 0.5147, 0.6437, -0.0116, -0.0029, 0.0129, 0.0000, 0.0000, 0.0000, 0.0000
1, 0.0500, 5, 0.3367, -0.5898, -0.7379, -0.0705, 0.0191, -0.0861, 0.0000, 0.0000, 0.0000, 0.0000, 0.0000, 0.0000, -0.8246, 0.1931, 0.3096, 0.4322, 0.0078, 0.0037, 0.0045, 0.0000, 0.0000, 0.0000, 0.0000
2, 0.0700, 7, -0.5041, -0.5376, -0.6695, 0.2080, 0.2850, -0.4230, 0.0000, 0.0000, 0.0000, 0.0000, 0.0000, 0.0000, 0.8163, -0.1362, 0.3830, 0.4103, -0.0094, 0.0009, -0.0001, 0.0000, 0.0000, 0.0000, 0.0000
1, 0.0600, 6, 0.3366, -0.5882, -0.7407, 0.1209, 0.2085, -0.0528, 0.0000, 0.0000, 0.0000, 0.0000, 0.0000, 0.0000, -0.8246, 0.1931, 0.3096, 0.4322, 0.0071, 0.0020, 0.0070, 0.0000, 0.0000, 0.0000, 0.0000
3, 0.0600, 6, -0.2202, -0.9734, -0.0737, 1.8816, 1.0310, 0.5651, 0.0000, 0.0000, 0.0000, 0.0000, 0.0000, 0.0000, -0.3426, 0.4509, 0.5148, 0.6437, -0.0076, 0.0018, 0.0102, 0.0000, 0.0000, 0.0000, 0.0000
2, 0.0800, 8, -0.5034, -0.5399, -0.6668, -0.0361, 0.1388, -0.1069, 0.0000, 0.0000, 0.0000, 0.0000, 0.0000, 0.0000, 0.8164, -0.1365, 0.3827, 0.4104, -0.0099, 0.0031, -0.0028, 0.0000, 0.0000, 0.0000, 0.0000
3, 0.0700, 7, -0.2215, -0.9775, -0.0724, 1.4086, 1.3164, 0.4717, 0.0000, 0.0000, 0.0000, 0.0000, 0.0000, 0.0000, -0.3425, 0.4508, 0.5149, 0.6437, -0.0063, 0.0058, 0.0091, 0.0000, 0.0000, 0.0000, 0.0000
1, 0.0700, 7, 0.3403, -0.5910, -0.7403, -0.0881, 0.2093, -0.2092, 0.0000, 0.0000, 0.0000, 0.0000, 0.0000, 0.0000, -0.8246, 0.1931, 0.3096, 0.4322, 0.0035, 0.0048, 0.0067, 0.0000, 0.0000, 0.0000, 0.0000
2, 0.0900, 9, -0.5036, -0.5382, -0.6687, -0.1517, -0.1711, -0.0655, 0.0000, 0.0000, 0.0000, 0.0000, 0.0000, 0.0000, 0.8164, -0.1365, 0.3827, 0.4104, -0.0093, 0.0011, -0.0011, 0.0000, 0.0000, 0.0000, 0.0000
1, 0.0800, 8, 0.3375, -0.5888, -0.7384, -0.1416, 0.2943, -0.2095, 0.0000, 0.0000, 0.0000, 0.0000, 0.0000, 0.0000, -0.8246, 0.1931, 0.3097, 0.4322, 0.0062, 0.0026, 0.0048, 0.0000, 0.0000, 0.0000, 0.0000
2, 0.1000, 10, -0.5052, -0.5398, -0.6647, -0.1522, -0.1729, 0.0217, 0.0000, 0.0000, 0.0000, 0.0000, 0.0000, 0.0000, 0.8164, -0.1365, 0.3827, 0.4104, -0.0076, 0.0028, -0.0051, 0.0000, 0.0000, 0.0000, 0.0000
3, 0.0800, 8, -0.2234, -0.9802, -0.0693, 0.6686, 1.4810, 0.4990, 0.0000, 0.0000, 0.0000, 0.0000, 0.0000, 0.0000, -0.3424, 0.4508, 0.5149, 0.6437, -0.0042, 0.0086, 0.0060, 0.0000, 0.0000, 0.0000, 0.0000
3, 0.0900, 9, -0.2236, -0.9758, -0.0666, 0.7270, 1.8499, 0.2699, 0.0000, 0.0000, 0.0000, 0.0000, 0.0000, 0.0000, -0.3423, 0.4507, 0.5150, 0.6438, -0.0041, 0.0041, 0.0034, 0.0000, 0.0000, 0.0000, 0.0000
1, 0.0900, 9, 0.3373, -0.5883, -0.7363, 0.0169, 0.2443, -0.1923, 0.0000, 0.0000, 0.0000, 0.0000, 0.0000, 0.0000, -0.8246, 0.1931, 0.3097, 0.4322, 0.0066, 0.0022, 0.0027, 0.0000, 0.0000, 0.0000, 0.0000
2, 0.1100, 11, -0.5063, -0.5383, -0.6640, -0.2448, 0.1864, -0.0858, 0.0000, 0.0000, 0.0000, 0.0000, 0.0000, 0.0000, 0.8164, -0.1365, 0.3827, 0.4104, -0.0065, 0.0013, -0.0058, 0.0000, 0.0000, 0.0000, 0.0000
1, 0.1000, 10, 0.3405, -0.5865, -0.7360, -0.2460, 0.1389, -0.1909, 0.0000, 0.0000, 0.0000, 0.0000, 0.0000, 0.0000, -0.8247, 0.1932, 0.3094, 0.4323, 0.0033, 0.0004, 0.0023, 0.0000, 0.0000, 0.0000, 0.0000
3, 0.1000, 10, -0.2171, -0.9746, -0.0665, 0.0612, 2.2945, 0.1562, 0.0000, 0.0000, 0.0000, 0.0000, 0.0000, 0.0000, -0.3422, 0.4506, 0.5151, 0.6439, -0.0107, 0.0029, 0.0032, 0.0000, 0.0000, 0.0000, 0.0000
2, 0.1200, 12, -0.5077, -0.5361, -0.6625, -0.2834, 0.4239, -0.0520, 0.0000, 0.0000, 0.0000, 0.0000, 0.0000, 0.0000, 0.8164, -0.1365, 0.3827, 0.4105, -0.0051, -0.0009, -0.0074, 0.0000, 0.0000, 0.0000, 0.0000
3, 0.1100, 11, -0.2203, -0.9701, -0.0674, 0.0636, 2.5393, 0.0847, 0.0000, 0.0000, 0.0000, 0.0000, 0.0000, 0.0000, -0.3421, 0.4504, 0.5152, 0.6440, -0.0074, -0.0015, 0.0040, 0.0000, 0.0000, 0.0000, 0.0000
3, 0.1200, 12, -0.2163, -0.9691, -0.0729, -0.0204, 2.6834, -0.1266, 0.0000, 0.0000, 0.0000, 0.0000, 0.0000, 0.0000, -0.3422, 0.4502, 0.5152, 0.6441, -0.0113, -0.0026, 0.0094, 0.0000, 0.0000, 0.0000, 0.0000
1, 0.1100, 11, 0.3401, -0.5897, -0.7358, -0.2266, -0.1006, -0.1722, 0.0000, 0.0000, 0.0000, 0.0000, 0.0000, 0.0000, -0.8247, 0.1932, 0.3094, 0.4323, 0.0032, 0.0036, 0.0019, 0.0000, 0.0000, 0.0000, 0.0000
2, 0.1300, 13, -0.5084, -0.5371, -0.6674, -0.4983, 0.5085, -0.0944, 0.0000, 0.0000, 0.0000, 0.0000, 0.0000, 0.0000, 0.8164, -0.1366, 0.3826, 0.4105, -0.0043, 0.0001, -0.0025, 0.0000, 0.0000, 0.0000, 0.0000
1, 0.1200, 12, 0.3402, -0.5890, -0.7353, -0.3520, -0.0012, -0.0675, 0.0000, 0.0000, 0.0000, 0.0000, 0.0000, 0.0000, -0.8247, 0.1931, 0.3094, 0.4323, 0.0031, 0.0030, 0.0013, 0.0000, 0.0000, 0.0000, 0.0000
2, 0.1400, 14, -0.5048, -0.5386, -0.6662, -0.4985, 0.5255, -0.0944, 0.0000, 0.0000, 0.0000, 0.0000, 0.0000, 0.0000, 0.8164, -0.1366, 0.3825, 0.4105, -0.0076, 0.0014, -0.0038, 0.0000, 0.0000, 0.0000, 0.0000
3, 0.1300, 13, -0.2145, -0.9730, -0.0729, -0.1950, 2.9467, -0.1474, 0.0000, 0.0000, 0.0000, 0.0000, 0.0000, 0.0000, -0.3421, 0.4500, 0.5153, 0.6442, -0.0128, 0.0013, 0.0089, 0.0000, 0.0000, 0.0000, 0.0000
3, 0.1400, 14, -0.2140, -0.9736, -0.0715, -0.3879, 3.1577, -0.1506, 0.0000, 0.0000, 0.0000, 0.0000, 0.0000, 0.0000, -0.3419, 0.4498, 0.5153, 0.6444, -0.0132, 0.0018, 0.0073, 0.0000, 0.0000, 0.0000, 0.0000
1, 0.1300, 13, 0.3374, -0.5908, -0.7388, -0.4119, -0.1530, -0.0648, 0.0000, 0.0000, 0.0000, 0.0000, 0.0000, 0.0000, -0.8247, 0.1931, 0.3093, 0.4323, 0.0059, 0.0048, 0.0048, 0.0000, 0.0000, 0.0000, 0.0000
2, 0.1500, 15, -0.5033, -0.5396, -0.6682, -0.4809, 0.5601, -0.1112, 0.0000, 0.0000, 0.0000, 0.0000, 0.0000, 0.0000, 0.8164, -0.1366, 0.3825, 0.4105, -0.0091, 0.0025, -0.0019, 0.0000, 0.0000, 0.0000, 0.0000
1, 0.1400, 14, 0.3396, -0.5885, -0.7393, -0.2458, -0.0414, -0.0082, 0.0000, 0.0000, 0.0000, 0.0000, 0.0000, 0.0000, -0.8247, 0.1931, 0.3093, 0.4323, 0.0037, 0.0026, 0.0053, 0.0000, 0.0000, 0.0000, 0.0000
3, 0.1500, 15, -0.2122, -0.9789, -0.0726, -0.5291, 3.4012, -0.0661, 0.0000, 0.0000, 0.0000, 0.0000, 0.0000, 0.0000, -0.3418, 0.4496, 0.5154, 0.6445, -0.0150, 0.0072, 0.0082, 0.0000, 0.0000, 0.0000, 0.0000
2, 0.1600, 16, -0.5028, -0.5372, -0.6690, -0.5886, 0.6460, -0.1846, 0.0000, 0.0000, 0.0000, 0.0000, 0.0000, 0.0000, 0.8164, -0.1366, 0.3824, 0.4105, -0.0095, 0.0002, -0.0012, 0.0000, 0.0000, 0.0000, 0.0000
3, 0.1600, 16, -0.2064, -0.9809, -0.0749, -1.0047, 3.3378, -0.1048, 0.0000, 0.0000, 0.0000, 0.0000, 0.0000, 0.0000, -0.3417, 0.4493, 0.5155, 0.6447, -0.0208, 0.0092, 0.0103, 0.0000, 0.0000, 0.0000, 0.0000
1, 0.1500, 15, 0.3402, -0.5895, -0.7383, -0.2294, -0.0602, 0.0966, 0.0000, 0.0000, 0.0000, 0.0000, 0.0000, 0.0000, -0.8247, 0.1932, 0.3092, 0.4324, 0.0029, 0.0036, 0.0042, 0.0000, 0.0000, 0.0000, 0.0000
2, 0.1700, 17, -0.5021, -0.5371, -0.6686, -0.4267, 0.4567, -0.0396, 0.0000, 0.0000, 0.0000, 0.0000, 0.0000, 0.0000, 0.8165, -0.1366, 0.3823, 0.4105, -0.0101, 0.0002, -0.0017, 0.0000, 0.0000, 0.0000, 0.0000
1, 0.1600, 16, 0.3383, -0.5898, -0.7378, -0.1409, -0.0932, 0.0790, 0.0000, 0.0000, 0.0000, 0.0000, 0.0000, 0.0000, -0.8247, 0.1932, 0.3091, 0.4324, 0.0046, 0.0038, 0.0036, 0.0000, 0.0000, 0.0000, 0.0000
2, 0.1800, 18, -0.5044, -0.5359, -0.6704, -0.4484, 0.4504, 0.0099, 0.0000, 0.0000, 0.0000, 0.0000, 0.0000, 0.0000, 0.8165, -0.1368, 0.3822, 0.4106, -0.0077, -0.0011, -0.0000, 0.0000, 0.0000, 0.0000, 0.0000
3, 0.1700, 17, -0.2035, -0.9792, -0.0756, -1.4472, 3.5484, 0.0645, 0.0000, 0.0000, 0.0000, 0.0000, 0.0000, 0.0000, -0.3418, 0.4489, 0.5156, 0.6449, -0.0235, 0.0075, 0.0106, 0.0000, 0.0000, 0.0000, 0.0000
3, 0.1800, 18, -0.1959, -0.9763, -0.0759, -1.7431, 3.5906, -0.1479, 0.0000, 0.0000, 0.0000, 0.0000, 0.0000, 0.0000, -0.3417, 0.4486, 0.5156, 0.6451, -0.0306, 0.0046, 0.0103, 0.0000, 0.0000, 0.0000, 0.0000
1, 0.1700, 17, 0.3402, -0.5893, -0.7381, -0.1766, -0.0423, 0.0789, 0.0000, 0.0000, 0.0000, 0.0000, 0.0000, 0.0000, -0.8247, 0.1932, 0.3091, 0.4324, 0.0026, 0.0034, 0.0039, 0.0000, 0.0000, 0.0000, 0.0000
2, 0.1900, 19, -0.5094, -0.5353, -0.6661, -0.1185, 0.2826, 0.0676, 0.0000, 0.0000, 0.0000, 0.0000, 0.0000, 0.0000, 0.8165, -0.1368, 0.3822, 0.4106, -0.0024, -0.0018, -0.0044, 0.0000, 0.0000, 0.0000, 0.0000
1, 0.1800, 18, 0.3401, -0.5890, -0.7371, -0.0004, -0.3345, 0.2544, 0.0000, 0.0000, 0.0000, 0.0000, 0.0000, 0.0000, -0.8247, 0.1932, 0.3091, 0.4324, 0.0027, 0.0031, 0.0029, 0.0000, 0.0000, 0.0000, 0.0000
3, 0.1900, 19, -0.1910, -0.9745, -0.0767, -1.9355, 3.8886, -0.1517, 0.0000, 0.0000, 0.0000, 0.0000, 0.0000, 0.0000, -0.3416, 0.4484, 0.5156, 0.6453, -0.0354, 0.0028, 0.0106, 0.0000, 0.0000, 0.0000, 0.0000
2, 0.2000, 20, -0.5071, -0.5390, -0.6679, -0.1354, 0.3035, -0.1249, 0.0000, 0.0000, 0.0000, 0.0000, 0.0000, 0.0000, 0.8165, -0.1368, 0.3821, 0.4106, -0.0046, 0.0018, -0.0026, 0.0000, 0.0000, 0.0000, 0.0000
2, 0.2100, 21, -0.5024, -0.5383, -0.6697, -0.0625, 0.1854, -0.1573, 0.0000, 0.0000, 0.0000, 0.0000, 0.0000, 0.0000, 0.8165, -0.1368, 0.3821, 0.4106, -0.0092, 0.0011, -0.0008, 0.0000, 0.0000, 0.0000, 0.0000
3, 0.2000, 20, -0.1904, -0.9752, -0.0774, -2.1452, 3.5470, -0.3608, 0.0000, 0.0000, 0.0000, 0.0000, 0.0000, 0.0000, -0.3415, 0.4481, 0.5156, 0.6456, -0.0359, 0.0034, 0.0109, 0.0000, 0.0000, 0.0000, 0.0000
1, 0.1900, 19, 0.3387, -0.5921, -0.7372, -0.1580, -0.1792, 0.0970, 0.0000, 0.0000, 0.0000, 0.0000, 0.0000, 0.0000, -0.8247, 0.1932, 0.3091, 0.4324, 0.0041, 0.0062, 0.0029, 0.0000, 0.0000, 0.0000, 0.0000
2, 0.2200, 22, -0.5037, -0.5376, -0.6701, -0.1692, 0.1330, -0.1263, 0.0000, 0.0000, 0.0000, 0.0000, 0.0000, 0.0000, 0.8165, -0.1368, 0.3821, 0.4106, -0.0079, 0.0004, -0.0004, 0.0000, 0.0000, 0.0000, 0.0000
1, 0.2000, 20, 0.3391, -0.5894, -0.7382, -0.2459, -0.2666, 0.1501, 0.0000, 0.0000, 0.0000, 0.0000, 0.0000, 0.0000, -0.8248, 0.1933, 0.3088, 0.4325, 0.0034, 0.0035, 0.0038, 0.0000, 0.0000, 0.0000, 0.0000
2, 0.2300, 23, -0.5022, -0.5404, -0.6697, -0.0264, 0.1161, -0.0864, 0.0000, 0.0000, 0.0000, 0.0000, 0.0000, 0.0000, 0.8165, -0.1376, 0.3818, 0.4107, -0.0092, 0.0029, -0.0008, 0.0000, 0.0000, 0.0000, 0.0000
3, 0.2100, 21, -0.1931, -0.9714, -0.0795, -2.1118, 3.1121, -0.3750, 0.0000, 0.0000, 0.0000, 0.0000, 0.0000, 0.0000, -0.3415, 0.4478, 0.5156, 0.6458, -0.0332, -0.0004, 0.0125, 0.0000, 0.0000, 0.0000, 0.0000
3, 0.2200, 22, -0.1904, -0.9702, -0.0810, -1.6562, 2.4983, -0.3842, 0.0000, 0.0000, 0.0000, 0.0000, 0.0000, 0.0000, -0.3417, 0.4473, 0.5157, 0.6459, -0.0356, -0.0016, 0.0134, 0.0000, 0.0000, 0.0000, 0.0000
1, 0.2100, 21, 0.3393, -0.5908, -0.7399, -0.0152, -0.1574, -0.0783, 0.0000, 0.0000, 0.0000, 0.0000, 0.0000, 0.0000, -0.8248, 0.1933, 0.3088, 0.4325, 0.0028, 0.0049, 0.0053, 0.0000, 0.0000, 0.0000, 0.0000
2, 0.2400, 24, -0.5058, -0.5417, -0.6697, -0.0624, 0.1325, -0.0702, 0.0000, 0.0000, 0.0000, 0.0000, 0.0000, 0.0000, 0.8165, -0.1376, 0.3818, 0.4107, -0.0047, 0.0034, -0.0008, 0.0000, 0.0000, 0.0000, 0.0000
1, 0.2200, 22, 0.3353, -0.5892, -0.7377, -0.1229, -0.0404, 0.0088, 0.0000, 0.0000, 0.0000, 0.0000, 0.0000, 0.0000, -0.8248, 0.1933, 0.3087, 0.4325, 0.0068, 0.0032, 0.0031, 0.0000, 0.0000, 0.0000, 0.0000
3, 0.2300, 23, -0.1929, -0.9702, -0.0780, -1.2551, 1.8660, -0.3065, 0.0000, 0.0000, 0.0000, 0.0000, 0.0000, 0.0000, -0.3417, 0.4472, 0.5157, 0.6460, -0.0324, -0.0017, 0.0099, 0.0000, 0.0000, 0.0000, 0.0000
2, 0.2500, 25, -0.5023, -0.5391, -0.6714, -0.1162, 0.0075, 0.1894, 0.0000, 0.0000, 0.0000, 0.0000, 0.0000, 0.0000, 0.8165, -0.1376, 0.3818, 0.4107, -0.0082, 0.0007, 0.0009, 0.0000, 0.0000, 0.0000, 0.0000
3, 0.2400, 24, -0.1926, -0.9721, -0.0783, -1.2068, 0.9261, -0.2997, 0.0000, 0.0000, 0.0000, 0.0000, 0.0000, 0.0000, -0.3417, 0.4471, 0.5157, 0.6461, -0.0327, 0.0002, 0.0100, 0.0000, 0.0000, 0.0000, 0.0000
1, 0.2300, 23, 0.3418, -0.5877, -0.7376, -0.2281, -0.1277, 0.0445, 0.0000, 0.0000, 0.0000, 0.0000, 0.0000, 0.0000, -0.8248, 0.1933, 0.3087, 0.4325, 0.0003, 0.0018, 0.0030, 0.0000, 0.0000, 0.0000, 0.0000
2, 0.2600, 26, -0.5025, -0.5388, -0.6704, 0.1003, -0.2134, 0.2317, 0.0000, 0.0000, 0.0000, 0.0000, 0.0000, 0.0000, 0.8165, -0.1376, 0.3818, 0.4106, -0.0079, 0.0005, -0.0002, 0.0000, 0.0000, 0.0000, 0.0000
1, 0.2400, 24, 0.3386, -0.5899, -0.7397, -0.1843, -0.1530, -0.0897, 0.0000, 0.0000, 0.0000, 0.0000, 0.0000, 0.0000, -0.8248, 0.1933, 0.3087, 0.4325, 0.0035, 0.0041, 0.0050, 0.0000, 0.0000, 0.0000, 0.0000
2, 0.2700, 27, -0.5018, -0.5383, -0.6693, -0.0958, -0.2845, 0.3119, 0.0000, 0.0000, 0.0000, 0.0000, 0.0000, 0.0000, 0.8165, -0.1376, 0.3819, 0.4106, -0.0088, 0.0000, -0.0012, 0.0000, 0.0000, 0.0000, 0.0000
3, 0.2500, 25, -0.1910, -0.9714, -0.0807, -0.9316, 0.1368, -0.1172, 0.0000, 0.0000, 0.0000, 0.0000, 0.0000, 0.0000, -0.3418, 0.4470, 0.5156, 0.6461, -0.0342, -0.0005, 0.0122, 0.0000, 0.0000, 0.0000, 0.0000
3, 0.2600, 26, -0.1914, -0.9724, -0.0793, -0.9341, -0.2465, -0.0796, 0.0000, 0.0000, 0.0000, 0.0000, 0.0000, 0.0000, -0.3418, 0.4470, 0.5156, 0.6462, -0.0338, 0.0005, 0.0106, 0.0000, 0.0000, 0.0000, 0.0000
2, 0.2800, 28, -0.4992, -0.5399, -0.6718, -0.0394, -0.5930, 0.4182, 0.0000, 0.0000, 0.0000, 0.0000, 0.0000, 0.0000, 0.8165, -0.1377, 0.3817, 0.4107, -0.0113, 0.0017, 0.0013, 0.0000, 0.0000, 0.0000, 0.0000
1, 0.2500, 25, 0.3415, -0.5890, -0.7389, -0.1485, -0.2556, -0.0719, 0.0000, 0.0000, 0.0000, 0.0000, 0.0000, 0.0000, -0.8248, 0.1934, 0.3087, 0.4324, 0.0005, 0.0031, 0.0043, 0.0000, 0.0000, 0.0000, 0.0000
3, 0.2700, 27, -0.1982, -0.9721, -0.0810, -0.8641, -0.4728, -0.1124, 0.0000, 0.0000, 0.0000, 0.0000, 0.0000, 0.0000, -0.3425, 0.4464, 0.5156, 0.6462, -0.0266, 0.0001, 0.0120, 0.0000, 0.0000, 0.0000, 0.0000
2, 0.2900, 29, -0.5011, -0.5400, -0.6720, 0.0372, -0.7785, 0.6338, 0.0000, 0.0000, 0.0000, 0.0000, 0.0000, 0.0000, 0.8165, -0.1376, 0.3818, 0.4107, -0.0093, 0.0017, 0.0013, 0.0000, 0.0000, 0.0000, 0.0000
1, 0.2600, 26, 0.3396, -0.5881, -0.7382, -0.3407, -0.1866, -0.2113, 0.0000, 0.0000, 0.0000, 0.0000, 0.0000, 0.0000, -0.8248, 0.1934, 0.3087, 0.4324, 0.0023, 0.0021, 0.0035, 0.0000, 0.0000, 0.0000, 0.0000
3, 0.2800, 28, -0.2006, -0.9695, -0.0792, -0.6387, -1.0505, -0.0541, 0.0000, 0.0000, 0.0000, 0.0000, 0.0000, 0.0000, -0.3426, 0.4464, 0.5156, 0.6462, -0.0231, -0.0026, 0.0094, 0.0000, 0.0000, 0.0000, 0.0000
1, 0.2700, 27, 0.3386, -0.5895, -0.7368, -0.3415, -0.1530, -0.1765, 0.0000, 0.0000, 0.0000, 0.0000, 0.0000, 0.0000, -0.8249, 0.1934, 0.3086, 0.4324, 0.0033, 0.0035, 0.0022, 0.0000, 0.0000, 0.0000, 0.0000
2, 0.3000, 30, -0.5080, -0.5381, -0.6653, -0.0532, -0.6417, 0.5784, 0.0000, 0.0000, 0.0000, 0.0000, 0.0000, 0.0000, 0.8165, -0.1376, 0.3818, 0.4107, -0.0025, -0.0001, -0.0053, 0.0000, 0.0000, 0.0000, 0.0000
3, 0.2900, 29, -0.2069, -0.9687, -0.0822, -0.1660, -1.5785, -0.0114, 0.0000, 0.0000, 0.0000, 0.0000, 0.0000, 0.0000, -0.3426, 0.4465, 0.5155, 0.6461, -0.0169, -0.0034, 0.0124, 0.0000, 0.0000, 0.0000, 0.0000
1, 0.2800, 28, 0.3390, -0.5905, -0.7374, -0.1301, -0.2716, -0.1242, 0.0000, 0.0000, 0.0000, 0.0000, 0.0000, 0.0000, -0.8249, 0.1934, 0.3086, 0.4324, 0.0029, 0.0046, 0.0027, 0.0000, 0.0000, 0.0000, 0.0000
2, 0.3100, 31, -0.5088, -0.5352, -0.6624, 0.0536, -0.5888, 0.5299, 0.0000, 0.0000, 0.0000, 0.0000, 0.0000, 0.0000, 0.8165, -0.1375, 0.3819, 0.4106, -0.0018, -0.0030, -0.0081, 0.0000, 0.0000, 0.0000, 0.0000
3, 0.3000, 30, -0.2091, -0.9714, -0.0819, -0.1852, -1.9088, -0.0093, 0.0000, 0.0000, 0.0000, 0.0000, 0.0000, 0.0000, -0.3427, 0.4466, 0.5155, 0.6460, -0.0146, -0.0007, 0.0122, 0.0000, 0.0000, 0.0000, 0.0000
1, 0.2900, 29, 0.3397, -0.5896, -0.7371, -0.4467, -0.2403, -0.1408, 0.0000, 0.0000, 0.0000, 0.0000, 0.0000, 0.0000, -0.8249, 0.1934, 0.3086, 0.4324, 0.0022, 0.0038, 0.0024, 0.0000, 0.0000, 0.0000, 0.0000
3, 0.3100, 31, -0.2102, -0.9719, -0.0833, -0.0243, -1.9773, -0.1646, 0.0000, 0.0000, 0.0000, 0.0000, 0.0000, 0.0000, -0.3428, 0.4467, 0.5154, 0.6460, -0.0135, -0.0002, 0.0137, 0.0000, 0.0000, 0.0000, 0.0000
2, 0.3200, 32, -0.5042, -0.5369, -0.6659, -0.0176, -0.4645, 0.2659, 0.0000, 0.0000, 0.0000, 0.0000, 0.0000, 0.0000, 0.8165, -0.1375, 0.3819, 0.4106, -0.0065, -0.0012, -0.0046, 0.0000, 0.0000, 0.0000, 0.0000
1, 0.3000, 30, 0.3353, -0.5870, -0.7368, -0.3419, -0.2402, -0.0887, 0.0000, 0.0000, 0.0000, 0.0000, 0.0000, 0.0000, -0.8249, 0.1935, 0.3084, 0.4324, 0.0065, 0.0012, 0.0020, 0.0000, 0.0000, 0.0000, 0.0000
1, 0.3100, 31, 0.3401, -0.5890, -0.7359, -0.3569, -0.2887, -0.2456, 0.0000, 0.0000, 0.0000, 0.0000, 0.0000, 0.0000, -0.8249, 0.1934, 0.3084, 0.4324, 0.0015, 0.0032, 0.0010, 0.0000, 0.0000, 0.0000, 0.0000
1, 0.3200, 32, 0.3397, -0.5900, -0.7377, -0.6568, -0.2411, -0.2099, 0.0000, 0.0000, 0.0000, 0.0000, 0.0000, 0.0000, -0.8250, 0.1934, 0.3084, 0.4324, 0.0018, 0.0042, 0.0027, 0.0000, 0.0000, 0.0000, 0.0000
2, 0.3300, 33, -0.5046, -0.5382, -0.6674, 0.0360, -0.4816, 0.2852, 0.0000, 0.0000, 0.0000, 0.0000, 0.0000, 0.0000, 0.8165, -0.1376, 0.3819, 0.4106, -0.0061, 0.0001, -0.0031, 0.0000, 0.0000, 0.0000, 0.0000
3, 0.3200, 32, -0.2099, -0.9708, -0.0826, -0.3594, -2.0948, -0.1842, 0.0000, 0.0000, 0.0000, 0.0000, 0.0000, 0.0000, -0.3432, 0.4467, 0.5152, 0.6459, -0.0138, -0.0014, 0.0129, 0.0000, 0.0000, 0.0000, 0.0000
1, 0.3300, 33, 0.3388, -0.5868, -0.7389, -0.6029, -0.3774, -0.2094, 0.0000, 0.0000, 0.0000, 0.0000, 0.0000, 0.0000, -0.8250, 0.1934, 0.3083, 0.4324, 0.0027, 0.0011, 0.0039, 0.0000, 0.0000, 0.0000, 0.0000
2, 0.3400, 34, -0.5032, -0.5396, -0.6694, 0.1416, -0.3976, 0.3763, 0.0000, 0.0000, 0.0000, 0.0000, 0.0000, 0.0000, 0.8165, -0.1376, 0.3819, 0.4106, -0.0075, 0.0013, -0.0010, 0.0000, 0.0000, 0.0000, 0.0000
3, 0.3300, 33, -0.2113, -0.9701, -0.0765, -0.4933, -1.7047, -0.5025, 0.0000, 0.0000, 0.0000, 0.0000, 0.0000, 0.0000, -0.3433, 0.4467, 0.5152, 0.6459, -0.0120, -0.0021, 0.0065, 0.0000, 0.0000, 0.0000, 0.0000
1, 0.3400, 34, 0.3419, -0.5887, -0.7388, -0.2860, -0.3950, -0.1898, 0.0000, 0.0000, 0.0000, 0.0000, 0.0000, 0.0000, -0.8250, 0.1933, 0.3083, 0.4323, -0.0004, 0.0031, 0.0037, 0.0000, 0.0000, 0.0000, 0.0000
3, 0.3400, 34, -0.2138, -0.9723, -0.0743, -0.6860, -1.6319, -0.5570, 0.0000, 0.0000, 0.0000, 0.0000, 0.0000, 0.0000, -0.3435, 0.4468, 0.5151, 0.6458, -0.0094, 0.0001, 0.0043, 0.0000, 0.0000, 0.0000, 0.0000
2, 0.3500, 35, -0.5045, -0.5372, -0.6652, -0.0546, -0.3629, 0.2822, 0.0000, 0.0000, 0.0000, 0.0000, 0.0000, 0.0000, 0.8165, -0.1375, 0.3820, 0.4106, -0.0063, -0.0010, -0.0051, 0.0000, 0.0000, 0.0000, 0.0000
1, 0.3500, 35, 0.3396, -0.5884, -0.7391, -0.2352, -0.2485, -0.1256, 0.0000, 0.0000, 0.0000, 0.0000, 0.0000, 0.0000, -0.8250, 0.1933, 0.3082, 0.4324, 0.0019, 0.0028, 0.0039, 0.0000, 0.0000, 0.0000, 0.0000
3, 0.3500, 35, -0.2138, -0.9687, -0.0766, -0.7576, -1.8053, -0.5390, 0.0000, 0.0000, 0.0000, 0.0000, 0.0000, 0.0000, -0.3436, 0.4468, 0.5150, 0.6458, -0.0093, -0.0035, 0.0065, 0.0000, 0.0000, 0.0000, 0.0000
2, 0.3600, 36, -0.5028, -0.5385, -0.6681, -0.1276, -0.2630, 0.3669, 0.0000, 0.0000, 0.0000, 0.0000, 0.0000, 0.0000, 0.8165, -0.1375, 0.3820, 0.4106, -0.0080, 0.0003, -0.0022, 0.0000, 0.0000, 0.0000, 0.0000
1, 0.3600, 36, 0.3373, -0.5859, -0.7413, 0.0103, -0.2990, -0.0389, 0.0000, 0.0000, 0.0000, 0.0000, 0.0000, 0.0000, -0.8250, 0.1933, 0.3081, 0.4324, 0.0040, 0.0005, 0.0059, 0.0000, 0.0000, 0.0000, 0.0000
2, 0.3700, 37, -0.5036, -0.5387, -0.6690, -0.1463, -0.2660, 0.5058, 0.0000, 0.0000, 0.0000, 0.0000, 0.0000, 0.0000, 0.8165, -0.1375, 0.3820, 0.4105, -0.0074, 0.0005, -0.0013, 0.0000, 0.0000, 0.0000, 0.0000
2, 0.3800, 38, -0.5036, -0.5387, -0.6685, 0.0675, -0.2307, 0.5134, 0.0000, 0.0000, 0.0000, 0.0000, 0.0000, 0.0000, 0.8165, -0.1376, 0.3820, 0.4105, -0.0073, 0.0005, -0.0018, 0.0000, 0.0000, 0.0000, 0.0000
3, 0.3600, 36, -0.2166, -0.9678, -0.0764, -0.5314, -2.3475, -0.5159, 0.0000, 0.0000, 0.0000, 0.0000, 0.0000, 0.0000, -0.3438, 0.4469, 0.5150, 0.6457, -0.0065, -0.0045, 0.0063, 0.0000, 0.0000, 0.0000, 0.0000
3, 0.3700, 37, -0.2170, -0.9742, -0.0732, -0.4807, -2.6101, -0.4612, 0.0000, 0.0000, 0.0000, 0.0000, 0.0000, 0.0000, -0.3440, 0.4470, 0.5149, 0.6456, -0.0060, 0.0019, 0.0031, 0.0000, 0.0000, 0.0000, 0.0000
1, 0.3700, 37, 0.3379, -0.5887, -0.7413, -0.0250, -0.1264, -0.1444, 0.0000, 0.0000, 0.0000, 0.0000, 0.0000, 0.0000, -0.8251, 0.1933, 0.3081, 0.4324, 0.0034, 0.0033, 0.0059, 0.0000, 0.0000, 0.0000, 0.0000
3, 0.3800, 38, -0.2202, -0.9746, -0.0775, -0.0286, -2.7952, -0.1416, 0.0000, 0.0000, 0.0000, 0.0000, 0.0000, 0.0000, -0.3441, 0.4471, 0.5148, 0.6455, -0.0027, 0.0022, 0.0074, 0.0000, 0.0000, 0.0000, 0.0000
2, 0.3900, 39, -0.5051, -0.5392, -0.6697, 0.0192, -0.4348, 0.2632, 0.0000, 0.0000, 0.0000, 0.0000, 0.0000, 0.0000, 0.8165, -0.1376, 0.3820, 0.4105, -0.0057, 0.0009, -0.0006, 0.0000, 0.0000, 0.0000, 0.0000
1, 0.3800, 38, 0.3393, -0.5857, -0.7412, 0.0780, -0.0250, -0.0231, 0.0000, 0.0000, 0.0000, 0.0000, 0.0000, 0.0000, -0.8251, 0.1933, 0.3081, 0.4324, 0.0020, 0.0003, 0.0058, 0.0000, 0.0000, 0.0000, 0.0000
2, 0.4000, 40, -0.5092, -0.5371, -0.6693, 0.1848, -0.3104, 0.2678, 0.0000, 0.0000, 0.0000, 0.0000, 0.0000, 0.0000, 0.8165, -0.1376, 0.3820, 0.4105, -0.0017, -0.0012, -0.0009, 0.0000, 0.0000, 0.0000, 0.0000
3, 0.3900, 39, -0.2164, -0.9738, -0.0779, -0.0288, -2.7262, -0.1071, 0.0000, 0.0000, 0.0000, 0.0000, 0.0000, 0.0000, -0.3443, 0.4473, 0.5147, 0.6454, -0.0065, 0.0015, 0.0079, 0.0000, 0.0000, 0.0000, 0.0000
3, 0.4000, 40, -0.2141, -0.9764, -0.0802, -0.2565, -2.2549, -0.0600, 0.0000, 0.0000, 0.0000, 0.0000, 0.0000, 0.0000, -0.3444, 0.4474, 0.5146, 0.6453, -0.0088, 0.0041, 0.0102, 0.0000, 0.0000, 0.0000, 0.0000
2, 0.4100, 41, -0.5076, -0.5357, -0.6678, 0.4199, -0.3868, -0.0729, 0.0000, 0.0000, 0.0000, 0.0000, 0.0000, 0.0000, 0.8165, -0.1376, 0.3821, 0.4105, -0.0033, -0.0026, -0.0024, 0.0000, 0.0000, 0.0000, 0.0000
1, 0.3900, 39, 0.3407, -0.5867, -0.7392, 0.1460, 0.1974, 0.0105, 0.0000, 0.0000, 0.0000, 0.0000, 0.0000, 0.0000, -0.8250, 0.1933, 0.3082, 0.4324, 0.0006, 0.0012, 0.0038, 0.0000, 0.0000, 0.0000, 0.0000
3, 0.4100, 41, -0.2113, -0.9760, -0.0820, -0.3620, -2.0285, -0.0100, 0.0000, 0.0000, 0.0000, 0.0000, 0.0000, 0.0000, -0.3445, 0.4475, 0.5146, 0.6452, -0.0116, 0.0037, 0.0121, 0.0000, 0.0000, 0.0000, 0.0000
2, 0.4200, 42, -0.5068, -0.5391, -0.6673, 0.3832, -0.3196, -0.0392, 0.0000, 0.0000, 0.0000, 0.0000, 0.0000, 0.0000, 0.8164, -0.1376, 0.3821, 0.4105, -0.0042, 0.0008, -0.0028, 0.0000, 0.0000, 0.0000, 0.0000
1, 0.4000, 40, 0.3413, -0.5904, -0.7403, 0.2336, 0.1806, 0.0452, 0.0000, 0.0000, 0.0000, 0.0000, 0.0000, 0.0000, -0.8250, 0.1933, 0.3081, 0.4324, -0.0000, 0.0049, 0.0049, 0.0000, 0.0000, 0.0000, 0.0000
3, 0.4200, 42, -0.2110, -0.9721, -0.0816, -0.5061, -1.9438, 0.1977, 0.0000, 0.0000, 0.0000, 0.0000, 0.0000, 0.0000, -0.3448, 0.4474, 0.5144, 0.6452, -0.0119, -0.0002, 0.0115, 0.0000, 0.0000, 0.0000, 0.0000
1, 0.4100, 41, 0.3373, -0.5874, -0.7410, 0.2152, 0.2485, 0.0624, 0.0000, 0.0000, 0.0000, 0.0000, 0.0000, 0.0000, -0.8250, 0.1934, 0.3081, 0.4324, 0.0039, 0.0019, 0.0056, 0.0000, 0.0000, 0.0000, 0.0000
2, 0.4300, 43, -0.5082, -0.5357, -0.6654, 0.3995, -0.2010, -0.0036, 0.0000, 0.0000, 0.0000, 0.0000, 0.0000, 0.0000, 0.8164, -0.1377, 0.3822, 0.4104, -0.0028, -0.0027, -0.0046, 0.0000, 0.0000, 0.0000, 0.0000
3, 0.4300, 43, -0.2071, -0.9681, -0.0775, -0.4730, -1.8601, 0.3546, 0.0000, 0.0000, 0.0000, 0.0000, 0.0000, 0.0000, -0.3449, 0.4475, 0.5143, 0.6451, -0.0156, -0.0043, 0.0071, 0.0000, 0.0000, 0.0000, 0.0000
3, 0.4400, 44, -0.2048, -0.9676, -0.0761, -0.4026, -1.8784, 0.3554, 0.0000, 0.0000, 0.0000, 0.0000, 0.0000, 0.0000, -0.3450, 0.4477, 0.5142, 0.6451, -0.0179, -0.0047, 0.0057, 0.0000, 0.0000, 0.0000, 0.0000
3, 0.4500, 45, -0.2053, -0.9662, -0.0772, -0.4200, -2.1201, 0.2695, 0.0000, 0.0000, 0.0000, 0.0000, 0.0000, 0.0000, -0.3451, 0.4478, 0.5141, 0.6450, -0.0175, -0.0061, 0.0068, 0.0000, 0.0000, 0.0000, 0.0000
1, 0.4200, 42, 0.3396, -0.5886, -0.7372, 0.2698, 0.1477, -0.0071, 0.0000, 0.0000, 0.0000, 0.0000, 0.0000, 0.0000, -0.8250, 0.1934, 0.3081, 0.4324, 0.0016, 0.0031, 0.0018, 0.0000, 0.0000, 0.0000, 0.0000
1, 0.4300, 43, 0.3404, -0.5887, -0.7369, 0.0755, 0.2312, -0.0069, 0.0000, 0.0000, 0.0000, 0.0000, 0.0000, 0.0000, -0.8250, 0.1934, 0.3082, 0.4324, 0.0008, 0.0031, 0.0016, 0.0000, 0.0000, 0.0000, 0.0000
1, 0.4400, 44, 0.3405, -0.5879, -0.7396, -0.0419, 0.1863, -0.0529, 0.0000, 0.0000, 0.0000, 0.0000, 0.0000, 0.0000, -0.8250, 0.1934, 0.3082, 0.4324, 0.0007, 0.0024, 0.0043, 0.0000, 0.0000, 0.0000, 0.0000
2, 0.4400, 44, -0.5079, -0.5391, -0.6663, 0.2010, 0.1087, -0.2195, 0.0000, 0.0000, 0.0000, 0.0000, 0.0000, 0.0000, 0.8164, -0.1377, 0.3822, 0.4104, -0.0031, 0.0005, -0.0036, 0.0000, 0.0000, 0.0000, 0.0000
2, 0.4500, 45, -0.5046, -0.5376, -0.6679, 0.2198, 0.0592, -0.2887, 0.0000, 0.0000, 0.0000, 0.0000, 0.0000, 0.0000, 0.8164, -0.1378, 0.3822, 0.4104, -0.0064, -0.0011, -0.0020, 0.0000, 0.0000, 0.0000, 0.0000
2, 0.4600, 46, -0.5051, -0.5385, -0.6697, 0.0226, 0.1435, -0.3130, 0.0000, 0.0000, 0.0000, 0.0000, 0.0000, 0.0000, 0.8164, -0.1378, 0.3822, 0.4104, -0.0058, -0.0002, -0.0001, 0.0000, 0.0000, 0.0000, 0.0000
3, 0.4600, 46, -0.2100, -0.9754, -0.0757, 0.0361, -2.4391, 0.3107, 0.0000, 0.0000, 0.0000, 0.0000, 0.0000, 0.0000, -0.3452, 0.4479, 0.5140, 0.6450, -0.0128, 0.0031, 0.0054, 0.0000, 0.0000, 0.0000, 0.0000
1, 0.4500, 45, 0.3410, -0.5870, -0.7415, -0.0724, 0.1754, -0.0470, 0.0000, 0.0000, 0.0000, 0.0000, 0.0000, 0.0000, -0.8250, 0.1932, 0.3080, 0.4327, 0.0001, 0.0015, 0.0061, 0.0000, 0.0000, 0.0000, 0.0000
2, 0.4700, 47, -0.5040, -0.5386, -0.6716, -0.0471, -0.0635, -0.2111, 0.0000, 0.0000, 0.0000, 0.0000, 0.0000, 0.0000, 0.8164, -0.1378, 0.3822, 0.4104, -0.0069, -0.0001, 0.0017, 0.0000, 0.0000, 0.0000, 0.0000
3, 0.4700, 47, -0.2110, -0.9745, -0.0738, 0.1381, -2.9809, 0.3851, 0.0000, 0.0000, 0.0000, 0.0000, 0.0000, 0.0000, -0.3454, 0.4480, 0.5140, 0.6448, -0.0119, 0.0022, 0.0037, 0.0000, 0.0000, 0.0000, 0.0000
1, 0.4600, 46, 0.3431, -0.5893, -0.7391, 0.1038, 0.2469, -0.1179, 0.0000, 0.0000, 0.0000, 0.0000, 0.0000, 0.0000, -0.8250, 0.1932, 0.3080, 0.4326, -0.0021, 0.0041, 0.0035, 0.0000, 0.0000, 0.0000, 0.0000
1, 0.4700, 47, 0.3362, -0.5883, -0.7392, 0.1204, 0.4188, -0.1537, 0.0000, 0.0000, 0.0000, 0.0000, 0.0000, 0.0000, -0.8250, 0.1932, 0.3080, 0.4326, 0.0048, 0.0030, 0.0035, 0.0000, 0.0000, 0.0000, 0.0000
2, 0.4800, 48, -0.5024, -0.5386, -0.6725, 0.2607, -0.5067, -0.0961, 0.0000, 0.0000, 0.0000, 0.0000, 0.0000, 0.0000, 0.8164, -0.1379, 0.3821, 0.4105, -0.0085, -0.0001, 0.0026, 0.0000, 0.0000, 0.0000, 0.0000
2, 0.4900, 49, -0.5024, -0.5386, -0.6709, 0.2949, -0.5635, -0.0287, 0.0000, 0.0000, 0.0000, 0.0000, 0.0000, 0.0000, 0.8163, -0.1379, 0.3821, 0.4105, -0.0083, -0.0002, 0.0009, 0.0000, 0.0000, 0.0000, 0.0000
3, 0.4800, 48, -0.2111, -0.9713, -0.0748, 0.3274, -3.1439, 0.6150, 0.0000, 0.0000, 0.0000, 0.0000, 0.0000, 0.0000, -0.3455, 0.4482, 0.5139, 0.6447, -0.0117, -0.0010, 0.0047, 0.0000, 0.0000, 0.0000, 0.0000
1, 0.4800, 48, 0.3399, -0.5886, -0.7404, 0.1733, 0.5581, -0.2594, 0.0000, 0.0000, 0.0000, 0.0000, 0.0000, 0.0000, -0.8250, 0.1932, 0.3081, 0.4326, 0.0012, 0.0033, 0.0048, 0.0000, 0.0000, 0.0000, 0.0000
3, 0.4900, 49, -0.2089, -0.9658, -0.0717, 0.4310, -3.0956, 0.7553, 0.0000, 0.0000, 0.0000, 0.0000, 0.0000, 0.0000, -0.3455, 0.4484, 0.5138, 0.6446, -0.0141, -0.0065, 0.0018, 0.0000, 0.0000, 0.0000, 0.0000
2, 0.5000, 50, -0.5034, -0.5409, -0.6733, 0.1733, -0.9941, -0.0546, 0.0000, 0.0000, 0.0000, 0.0000, 0.0000, 0.0000, 0.8163, -0.1379, 0.3822, 0.4105, -0.0074, 0.0019, 0.0034, 0.0000, 0.0000, 0.0000, 0.0000
1, 0.4900, 49, 0.3352, -0.5883, -0.7420, 0.3642, 0.7989, -0.2263, 0.0000, 0.0000, 0.0000, 0.0000, 0.0000, 0.0000, -0.8250, 0.1932, 0.3081, 0.4326, 0.0060, 0.0030, 0.0065, 0.0000, 0.0000, 0.0000, 0.0000
2, 0.5100, 51, -0.5054, -0.5426, -0.6774, 1.0596, -2.0096, -0.0768, 0.0000, 0.0000, 0.0000, 0.0000, 0.0000, 0.0000, 0.8162, -0.1379, 0.3824, 0.4105, -0.0055, 0.0036, 0.0078, 0.0000, 0.0000, 0.0000, 0.0000
3, 0.5000, 50, -0.2074, -0.9616, -0.0707, 1.0282, -2.8626, 0.9510, 0.0000, 0.0000, 0.0000, 0.0000, 0.0000, 0.0000, -0.3456, 0.4487, 0.5137, 0.6445, -0.0157, -0.0107, 0.0010, 0.0000, 0.0000, 0.0000, 0.0000
1, 0.5000, 50, 0.3397, -0.5896, -0.7378, 0.1001, 1.1247, -0.4192, 0.0000, 0.0000, 0.0000, 0.0000, 0.0000, 0.0000, -0.8250, 0.1932, 0.3082, 0.4326, 0.0017, 0.0043, 0.0024, 0.0000, 0.0000, 0.0000, 0.0000
2, 0.5200, 52, -0.5088, -0.5402, -0.6705, 1.9623, -2.7825, -0.2901, 0.0000, 0.0000, 0.0000, 0.0000, 0.0000, 0.0000, 0.8161, -0.1379, 0.3827, 0.4105, -0.0024, 0.0010, 0.0013, 0.0000, 0.0000, 0.0000, 0.0000
3, 0.5100, 51, -0.2087, -0.9625, -0.0691, 1.2393, -2.6924, 1.0216, 0.0000, 0.0000, 0.0000, 0.0000, 0.0000, 0.0000, -0.3456, 0.4489, 0.5137, 0.6443, -0.0147, -0.0098, -0.0002, 0.0000, 0.0000, 0.0000, 0.0000
1, 0.5100, 51, 0.3396, -0.5882, -0.7395, 0.1707, 1.2991, -0.5600, 0.0000, 0.0000, 0.0000, 0.0000, 0.0000, 0.0000, -0.8249, 0.1931, 0.3083, 0.4326, 0.0019, 0.0028, 0.0042, 0.0000, 0.0000, 0.0000, 0.0000
2, 0.5300, 53, -0.5031, -0.5375, -0.6693, 2.6589, -2.8293, -0.2656, 0.0000, 0.0000, 0.0000, 0.0000, 0.0000, 0.0000, 0.8160, -0.1380, 0.3829, 0.4105, -0.0084, -0.0020, 0.0005, 0.0000, 0.0000, 0.0000, 0.0000
3, 0.5200, 52, -0.2148, -0.9700, -0.0691, 1.8906, -2.4932, 1.1307, 0.0000, 0.0000, 0.0000, 0.0000, 0.0000, 0.0000, -0.3456, 0.4491, 0.5137, 0.6442, -0.0087, -0.0022, 0.0001, 0.0000, 0.0000, 0.0000, 0.0000
1, 0.5200, 52, 0.3413, -0.5913, -0.7391, -0.0040, 1.2470, -0.6115, 0.0000, 0.0000, 0.0000, 0.0000, 0.0000, 0.0000, -0.8249, 0.1931, 0.3084, 0.4325, 0.0004, 0.0060, 0.0038, 0.0000, 0.0000, 0.0000, 0.0000
3, 0.5300, 53, -0.2212, -0.9710, -0.0742, 1.7845, -2.5271, 1.1475, 0.0000, 0.0000, 0.0000, 0.0000, 0.0000, 0.0000, -0.3456, 0.4494, 0.5137, 0.6440, -0.0025, -0.0012, 0.0056, 0.0000, 0.0000, 0.0000, 0.0000
2, 0.5400, 54, -0.5025, -0.5407, -0.6680, 2.8555, -2.9687, -0.0494, 0.0000, 0.0000, 0.0000, 0.0000, 0.0000, 0.0000, 0.8158, -0.1381, 0.3832, 0.4105, -0.0093, 0.0008, -0.0003, 0.0000, 0.0000, 0.0000, 0.0000
1, 0.5300, 53, 0.3405, -0.5854, -0.7387, -0.1976, 1.3660, -0.6813, 0.0000, 0.0000, 0.0000, 0.0000, 0.0000, 0.0000, -0.8249, 0.1930, 0.3085, 0.4325, 0.0015, 0.0001, 0.0036, 0.0000, 0.0000, 0.0000, 0.0000
2, 0.5500, 55, -0.5059, -0.5391, -0.6656, 2.4964, -2.9431, 0.2345, 0.0000, 0.0000, 0.0000, 0.0000, 0.0000, 0.0000, 0.8157, -0.1382, 0.3835, 0.4104, -0.0062, -0.0011, -0.0022, 0.0000, 0.0000, 0.0000, 0.0000
3, 0.5400, 54, -0.2279, -0.9693, -0.0743, 2.0337, -1.7140, 1.2315, 0.0000, 0.0000, 0.0000, 0.0000, 0.0000, 0.0000, -0.3455, 0.4496, 0.5137, 0.6439, 0.0040, -0.0029, 0.0062, 0.0000, 0.0000, 0.0000, 0.0000
1, 0.5400, 54, 0.3421, -0.5862, -0.7379, -0.2830, 1.2303, -0.7851, 0.0000, 0.0000, 0.0000, 0.0000, 0.0000, 0.0000, -0.8249, 0.1929, 0.3086, 0.4325, 0.0001, 0.0010, 0.0028, 0.0000, 0.0000, 0.0000, 0.0000
2, 0.5600, 56, -0.5050, -0.5386, -0.6643, 1.6360, -2.6958, 0.3439, 0.0000, 0.0000, 0.0000, 0.0000, 0.0000, 0.0000, 0.8156, -0.1382, 0.3838, 0.4104, -0.0075, -0.0018, -0.0031, 0.0000, 0.0000, 0.0000, 0.0000
3, 0.5500, 55, -0.2271, -0.9729, -0.0687, 2.2484, -0.7614, 1.3142, 0.0000, 0.0000, 0.0000, 0.0000, 0.0000, 0.0000, -0.3454, 0.4497, 0.5137, 0.6438, 0.0030, 0.0007, 0.0010, 0.0000, 0.0000, 0.0000, 0.0000
3, 0.5600, 56, -0.2293, -0.9711, -0.0682, 2.0250, 0.4067, 1.3042, 0.0000, 0.0000, 0.0000, 0.0000, 0.0000, 0.0000, -0.3452, 0.4498, 0.5138, 0.6438, 0.0049, -0.0011, 0.0008, 0.0000, 0.0000, 0.0000, 0.0000
1, 0.5500, 55, 0.3423, -0.5880, -0.7390, -0.3048, 1.6570, -0.7523, 0.0000, 0.0000, 0.0000, 0.0000, 0.0000, 0.0000, -0.8249, 0.1928, 0.3087, 0.4325, 0.0001, 0.0029, 0.0039, 0.0000, 0.0000, 0.0000, 0.0000
2, 0.5700, 57, -0.5058, -0.5367, -0.6658, 1.2385, -2.3083, 0.4176, 0.0000, 0.0000, 0.0000, 0.0000, 0.0000, 0.0000, 0.8155, -0.1382, 0.3840, 0.4103, -0.0071, -0.0038, -0.0012, 0.0000, 0.0000, 0.0000, 0.0000
3, 0.5700, 57, -0.2262, -0.9735, -0.0691, 1.8703, 1.3298, 1.3315, 0.0000, 0.0000, 0.0000, 0.0000, 0.0000, 0.0000, -0.3450, 0.4499, 0.5139, 0.6438, 0.0016, 0.0013, 0.0020, 0.0000, 0.0000, 0.0000, 0.0000
1, 0.5600, 56, 0.3447, -0.5854, -0.7383, -0.2723, 1.6189, -0.5252, 0.0000, 0.0000, 0.0000, 0.0000, 0.0000, 0.0000, -0.8249, 0.1927, 0.3088, 0.4325, -0.0020, 0.0003, 0.0033, 0.0000, 0.0000, 0.0000, 0.0000
3, 0.5800, 58, -0.2237, -0.9741, -0.0667, 1.6093, 2.0805, 1.3415, 0.0000, 0.0000, 0.0000, 0.0000, 0.0000, 0.0000, -0.3448, 0.4499, 0.5140, 0.6439, -0.0012, 0.0020, -0.0002, 0.0000, 0.0000, 0.0000, 0.0000
2, 0.5800, 58, -0.5046, -0.5413, -0.6615, 0.6431, -1.8920, 0.6762, 0.0000, 0.0000, 0.0000, 0.0000, 0.0000, 0.0000, 0.8155, -0.1382, 0.3842, 0.4103, -0.0085, 0.0008, -0.0052, 0.0000, 0.0000, 0.0000, 0.0000
1, 0.5700, 57, 0.3427, -0.5848, -0.7379, -0.2891, 1.6890, -0.6302, 0.0000, 0.0000, 0.0000, 0.0000, 0.0000, 0.0000, -0.8249, 0.1926, 0.3090, 0.4324, 0.0003, -0.0002, 0.0030, 0.0000, 0.0000, 0.0000, 0.0000
2, 0.5900, 59, -0.5087, -0.5393, -0.6613, 0.2612, -1.2996, 0.7332, 0.0000, 0.0000, 0.0000, 0.0000, 0.0000, 0.0000, 0.8155, -0.1382, 0.3843, 0.4102, -0.0046, -0.0013, -0.0053, 0.0000, 0.0000, 0.0000, 0.0000
3, 0.5900, 59, -0.2222, -0.9759, -0.0706, 1.1914, 2.8869, 1.2625, 0.0000, 0.0000, 0.0000, 0.0000, 0.0000, 0.0000, -0.3445, 0.4498, 0.5141, 0.6440, -0.0029, 0.0039, 0.0038, 0.0000, 0.0000, 0.0000, 0.0000
3, 0.6000, 60, -0.2227, -0.9778, -0.0654, 0.3835, 3.6433, 1.3026, 0.0000, 0.0000, 0.0000, 0.0000, 0.0000, 0.0000, -0.3443, 0.4497, 0.5142, 0.6441, -0.0025, 0.0058, -0.0014, 0.0000, 0.0000, 0.0000, 0.0000
2, 0.6000, 60, -0.5093, -0.5395, -0.6631, -0.2085, -0.8796, 0.8567, 0.0000, 0.0000, 0.0000, 0.0000, 0.0000, 0.0000, 0.8155, -0.1381, 0.3843, 0.4102, -0.0042, -0.0010, -0.0033, 0.0000, 0.0000, 0.0000, 0.0000
1, 0.5800, 58, 0.3455, -0.5874, -0.7378, -0.1316, 1.5164, -0.4553, 0.0000, 0.0000, 0.0000, 0.0000, 0.0000, 0.0000, -0.8249, 0.1925, 0.3091, 0.4324, -0.0022, 0.0024, 0.0029, 0.0000, 0.0000, 0.0000, 0.0000
2, 0.6100, 61, -0.5052, -0.5399, -0.6683, -0.0108, -0.9091, 0.7066, 0.0000, 0.0000, 0.0000, 0.0000, 0.0000, 0.0000, 0.8155, -0.1380, 0.3844, 0.4101, -0.0085, -0.0005, 0.0019, 0.0000, 0.0000, 0.0000, 0.0000
2, 0.6200, 62, -0.5118, -0.5352, -0.6629, 0.1516, -1.0788, 0.7296, 0.0000, 0.0000, 0.0000, 0.0000, 0.0000, 0.0000, 0.8154, -0.1380, 0.3845, 0.4101, -0.0021, -0.0052, -0.0034, 0.0000, 0.0000, 0.0000, 0.0000
3, 0.6100, 61, -0.2205, -0.9754, -0.0685, -0.2627, 4.1245, 1.0840, 0.0000, 0.0000, 0.0000, 0.0000, 0.0000, 0.0000, -0.3440, 0.4495, 0.5142, 0.6443, -0.0048, 0.0034, 0.0015, 0.0000, 0.0000, 0.0000, 0.0000
1, 0.5900, 59, 0.3451, -0.5841, -0.7366, -0.1101, 1.2104, -0.5411, 0.0000, 0.0000, 0.0000, 0.0000, 0.0000, 0.0000, -0.8249, 0.1925, 0.3092, 0.4324, -0.0016, -0.0008, 0.0019, 0.0000, 0.0000, 0.0000, 0.0000
3, 0.6200, 62, -0.2147, -0.9749, -0.0746, -0.1934, 4.0705, 1.1374, 0.0000, 0.0000, 0.0000, 0.0000, 0.0000, 0.0000, -0.3439, 0.4492, 0.5143, 0.6445, -0.0107, 0.0030, 0.0074, 0.0000, 0.0000, 0.0000, 0.0000
2, 0.6300, 63, -0.5118, -0.5331, -0.6632, -0.1712, -0.8561, 0.5615, 0.0000, 0.0000, 0.0000, 0.0000, 0.0000, 0.0000, 0.8154, -0.1379, 0.3846, 0.4101, -0.0022, -0.0072, -0.0030, 0.0000, 0.0000, 0.0000, 0.0000
1, 0.6000, 60, 0.3487, -0.5863, -0.7385, 0.0304, 0.9865, -0.3833, 0.0000, 0.0000, 0.0000, 0.0000, 0.0000, 0.0000, -0.8248, 0.1924, 0.3093, 0.4324, -0.0050, 0.0015, 0.0038, 0.0000, 0.0000, 0.0000, 0.0000
2, 0.6400, 64, -0.5089, -0.5389, -0.6634, -0.4415, -0.6012, 0.4999, 0.0000, 0.0000, 0.0000, 0.0000, 0.0000, 0.0000, 0.8154, -0.1378, 0.3846, 0.4101, -0.0053, -0.0013, -0.0028, 0.0000, 0.0000, 0.0000, 0.0000
1, 0.6100, 61, 0.3427, -0.5846, -0.7381, 0.2960, 0.8185, -0.4008, 0.0000, 0.0000, 0.0000, 0.0000, 0.0000, 0.0000, -0.8248, 0.1923, 0.3093, 0.4324, 0.0012, -0.0002, 0.0034, 0.0000, 0.0000, 0.0000, 0.0000
1, 0.6200, 62, 0.3423, -0.5866, -0.7397, 0.3837, 0.7152, -0.3133, 0.0000, 0.0000, 0.0000, 0.0000, 0.0000, 0.0000, -0.8248, 0.1923, 0.3094, 0.4324, 0.0017, 0.0017, 0.0051, 0.0000, 0.0000, 0.0000, 0.0000
3, 0.6300, 63, -0.2122, -0.9727, -0.0745, -0.0295, 4.2649, 0.8755, 0.0000, 0.0000, 0.0000, 0.0000, 0.0000, 0.0000, -0.3436, 0.4490, 0.5144, 0.6447, -0.0132, 0.0008, 0.0071, 0.0000, 0.0000, 0.0000, 0.0000
2, 0.6500, 65, -0.5086, -0.5390, -0.6598, -0.6947, -0.3842, 0.6308, 0.0000, 0.0000, 0.0000, 0.0000, 0.0000, 0.0000, 0.8155, -0.1377, 0.3846, 0.4100, -0.0056, -0.0010, -0.0064, 0.0000, 0.0000, 0.0000, 0.0000
3, 0.6400, 64, -0.2054, -0.9719, -0.0768, 0.4135, 4.6949, 0.8590, 0.0000, 0.0000, 0.0000, 0.0000, 0.0000, 0.0000, -0.3434, 0.4488, 0.5145, 0.6449, -0.0201, 0.0000, 0.0092, 0.0000, 0.0000, 0.0000, 0.0000
1, 0.6300, 63, 0.3442, -0.5865, -0.7364, 0.3499, 0.6129, -0.3476, 0.0000, 0.0000, 0.0000, 0.0000, 0.0000, 0.0000, -0.8248, 0.1923, 0.3095, 0.4324, -0.0001, 0.0017, 0.0019, 0.0000, 0.0000, 0.0000, 0.0000
2, 0.6600, 66, -0.5121, -0.5365, -0.6650, -0.5916, 0.0981, 0.4082, 0.0000, 0.0000, 0.0000, 0.0000, 0.0000, 0.0000, 0.8155, -0.1377, 0.3846, 0.4100, -0.0022, -0.0035, -0.0013, 0.0000, 0.0000, 0.0000, 0.0000
1, 0.6400, 64, 0.3480, -0.5877, -0.7373, 0.3151, 0.4053, -0.2416, 0.0000, 0.0000, 0.0000, 0.0000, 0.0000, 0.0000, -0.8248, 0.1923, 0.3095, 0.4324, -0.0038, 0.0028, 0.0029, 0.0000, 0.0000, 0.0000, 0.0000
1, 0.6500, 65, 0.3464, -0.5869, -0.7366, 0.2078, 0.4536, -0.1367, 0.0000, 0.0000, 0.0000, 0.0000, 0.0000, 0.0000, -0.8248, 0.1922, 0.3096, 0.4324, -0.0021, 0.0020, 0.0022, 0.0000, 0.0000, 0.0000, 0.0000
3, 0.6500, 65, -0.2028, -0.9727, -0.0722, 0.5410, 5.0095, 0.7008, 0.0000, 0.0000, 0.0000, 0.0000, 0.0000, 0.0000, -0.3431, 0.4486, 0.5147, 0.6451, -0.0228, 0.0008, 0.0045, 0.0000, 0.0000, 0.0000, 0.0000
3, 0.6600, 66, -0.1951, -0.9768, -0.0787, 0.5945, 5.0788, 0.6833, 0.0000, 0.0000, 0.0000, 0.0000, 0.0000, 0.0000, -0.3428, 0.4483, 0.5148, 0.6453, -0.0306, 0.0050, 0.0109, 0.0000, 0.0000, 0.0000, 0.0000
2, 0.6700, 67, -0.5116, -0.5353, -0.6657, -0.6991, 0.2199, 0.2476, 0.0000, 0.0000, 0.0000, 0.0000, 0.0000, 0.0000, 0.8155, -0.1376, 0.3845, 0.4100, -0.0028, -0.0046, -0.0006, 0.0000, 0.0000, 0.0000, 0.0000
1, 0.6600, 66, 0.3476, -0.5871, -0.7377, 0.2638, 0.1818, -0.2054, 0.0000, 0.0000, 0.0000, 0.0000, 0.0000, 0.0000, -0.8248, 0.1922, 0.3096, 0.4324, -0.0031, 0.0023, 0.0033, 0.0000, 0.0000, 0.0000, 0.0000
2, 0.6800, 68, -0.5094, -0.5382, -0.6647, -0.6287, 0.4118, 0.0584, 0.0000, 0.0000, 0.0000, 0.0000, 0.0000, 0.0000, 0.8155, -0.1376, 0.3844, 0.4101, -0.0049, -0.0016, -0.0017, 0.0000, 0.0000, 0.0000, 0.0000
1, 0.6700, 67, 0.3459, -0.5847, -0.7377, 0.3702, -0.0930, -0.0821, 0.0000, 0.0000, 0.0000, 0.0000, 0.0000, 0.0000, -0.8248, 0.1923, 0.3096, 0.4323, -0.0014, -0.0002, 0.0034, 0.0000, 0.0000, 0.0000, 0.0000
3, 0.6700, 67, -0.1820, -0.9812, -0.0887, 0.8937, 5.0576, 0.7035, 0.0000, 0.0000, 0.0000, 0.0000, 0.0000, 0.0000, -0.3427, 0.4479, 0.5151, 0.6455, -0.0436, 0.0094, 0.0207, 0.0000, 0.0000, 0.0000, 0.0000
2, 0.6900, 69, -0.5079, -0.5382, -0.6652, -0.5223, 0.4632, 0.0797, 0.0000, 0.0000, 0.0000, 0.0000, 0.0000, 0.0000, 0.8156, -0.1376, 0.3844, 0.4101, -0.0062, -0.0015, -0.0014, 0.0000, 0.0000, 0.0000, 0.0000
3, 0.6800, 68, -0.1896, -0.9642, -0.0924, 0.5624, 5.1346, 0.5080, 0.0000, 0.0000, 0.0000, 0.0000, 0.0000, 0.0000, -0.3424, 0.4476, 0.5152, 0.6457, -0.0355, -0.0077, 0.0242, 0.0000, 0.0000, 0.0000, 0.0000
1, 0.6800, 68, 0.3454, -0.5852, -0.7346, 0.3691, -0.0773, -0.0124, 0.0000, 0.0000, 0.0000, 0.0000, 0.0000, 0.0000, -0.8248, 0.1923, 0.3096, 0.4323, -0.0010, 0.0003, 0.0003, 0.0000, 0.0000, 0.0000, 0.0000
2, 0.7000, 70, -0.5090, -0.5376, -0.6661, -0.3962, 0.3795, 0.0492, 0.0000, 0.0000, 0.0000, 0.0000, 0.0000, 0.0000, 0.8156, -0.1376, 0.3843, 0.4101, -0.0051, -0.0021, -0.0007, 0.0000, 0.0000, 0.0000, 0.0000
1, 0.6900, 69, 0.3462, -0.5862, -0.7350, 0.3538, -0.1781, -0.1166, 0.0000, 0.0000, 0.0000, 0.0000, 0.0000, 0.0000, -0.8248, 0.1923, 0.3096, 0.4323, -0.0018, 0.0013, 0.0007, 0.0000, 0.0000, 0.0000, 0.0000
3, 0.6900, 69, -0.1953, -0.9667, -0.0959, 0.6528, 5.1707, 0.3863, 0.0000, 0.0000, 0.0000, 0.0000, 0.0000, 0.0000, -0.3422, 0.4474, 0.5154, 0.6459, -0.0298, -0.0052, 0.0275, 0.0000, 0.0000, 0.0000, 0.0000
3, 0.7000, 70, -0.1921, -0.9685, -0.0950, 0.5932, 4.5064, 0.5999, 0.0000, 0.0000, 0.0000, 0.0000, 0.0000, 0.0000, -0.3419, 0.4472, 0.5156, 0.6460, -0.0331, -0.0034, 0.0266, 0.0000, 0.0000, 0.0000, 0.0000
1, 0.7000, 70, 0.3448, -0.5888, -0.7369, 0.3022, -0.3674, -0.0805, 0.0000, 0.0000, 0.0000, 0.0000, 0.0000, 0.0000, -0.8248, 0.1924, 0.3096, 0.4323, -0.0005, 0.0038, 0.0026, 0.0000, 0.0000, 0.0000, 0.0000
1, 0.7100, 71, 0.3435, -0.5862, -0.7374, 0.1076, -0.2845, -0.0453, 0.0000, 0.0000, 0.0000, 0.0000, 0.0000, 0.0000, -0.8248, 0.1924, 0.3096, 0.4323, 0.0008, 0.0011, 0.0031, 0.0000, 0.0000, 0.0000, 0.0000
3, 0.7100, 71, -0.1885, -0.9714, -0.0884, 1.0132, 4.0312, 0.6417, 0.0000, 0.0000, 0.0000, 0.0000, 0.0000, 0.0000, -0.3417, 0.4470, 0.5157, 0.6462, -0.0368, -0.0004, 0.0199, 0.0000, 0.0000, 0.0000, 0.0000
2, 0.7100, 71, -0.5064, -0.5412, -0.6739, 0.1622, -0.0947, 0.1032, 0.0000, 0.0000, 0.0000, 0.0000, 0.0000, 0.0000, 0.8156, -0.1376, 0.3843, 0.4101, -0.0076, 0.0015, 0.0072, 0.0000, 0.0000, 0.0000, 0.0000
3, 0.7200, 72, -0.1883, -0.9700, -0.0887, 1.2041, 4.0601, 0.8353, 0.0000, 0.0000, 0.0000, 0.0000, 0.0000, 0.0000, -0.3416, 0.4466, 0.5159, 0.6463, -0.0369, -0.0019, 0.0202, 0.0000, 0.0000, 0.0000, 0.0000
1, 0.7200, 72, 0.3421, -0.5870, -0.7372, 0.1234, -0.2176, 0.0416, 0.0000, 0.0000, 0.0000, 0.0000, 0.0000, 0.0000, -0.8248, 0.1925, 0.3096, 0.4322, 0.0022, 0.0019, 0.0030, 0.0000, 0.0000, 0.0000, 0.0000
2, 0.7200, 72, -0.5048, -0.5405, -0.6704, 0.9396, -0.9934, 0.1644, 0.0000, 0.0000, 0.0000, 0.0000, 0.0000, 0.0000, 0.8155, -0.1376, 0.3844, 0.4101, -0.0093, 0.0008, 0.0038, 0.0000, 0.0000, 0.0000, 0.0000
1, 0.7300, 73, 0.3453, -0.5868, -0.7381, 0.0858, 0.1077, 0.0052, 0.0000, 0.0000, 0.0000, 0.0000, 0.0000, 0.0000, -0.8248, 0.1925, 0.3096, 0.4322, -0.0010, 0.0017, 0.0038, 0.0000, 0.0000, 0.0000, 0.0000
3, 0.7300, 73, -0.1880, -0.9754, -0.0896, 1.7463, 3.5129, 0.9312, 0.0000, 0.0000, 0.0000, 0.0000, 0.0000, 0.0000, -0.3413, 0.4465, 0.5161, 0.6464, -0.0368, 0.0034, 0.0209, 0.0000, 0.0000, 0.0000, 0.0000
2, 0.7300, 73, -0.5093, -0.5380, -0.6667, 1.1612, -1.6567, 0.1889, 0.0000, 0.0000, 0.0000, 0.0000, 0.0000, 0.0000, 0.8155, -0.1376, 0.3846, 0.4100, -0.0050, -0.0018, 0.0003, 0.0000, 0.0000, 0.0000, 0.0000
3, 0.7400, 74, -0.1931, -0.9729, -0.0847, 1.4130, 3.3629, 0.7896, 0.0000, 0.0000, 0.0000, 0.0000, 0.0000, 0.0000, -0.3411, 0.4464, 0.5162, 0.6465, -0.0319, 0.0010, 0.0162, 0.0000, 0.0000, 0.0000, 0.0000
1, 0.7400, 74, 0.3457, -0.5859, -0.7401, 0.1185, 0.2083, 0.1268, 0.0000, 0.0000, 0.0000, 0.0000, 0.0000, 0.0000, -0.8248, 0.1925, 0.3096, 0.4323, -0.0014, 0.0008, 0.0059, 0.0000, 0.0000, 0.0000, 0.0000
2, 0.7400, 74, -0.5098, -0.5406, -0.6704, 1.2533, -1.8762, 0.1221, 0.0000, 0.0000, 0.0000, 0.0000, 0.0000, 0.0000, 0.8154, -0.1377, 0.3848, 0.4100, -0.0047, 0.0007, 0.0043, 0.0000, 0.0000, 0.0000, 0.0000
1, 0.7500, 75, 0.3410, -0.5867, -0.7397, 0.0814, 0.2918, 0.2138, 0.0000, 0.0000, 0.0000, 0.0000, 0.0000, 0.0000, -0.8248, 0.1926, 0.3092, 0.4324, 0.0031, 0.0016, 0.0054, 0.0000, 0.0000, 0.0000, 0.0000
3, 0.7500, 75, -0.1983, -0.9686, -0.0839, 1.8725, 3.6184, 0.7918, 0.0000, 0.0000, 0.0000, 0.0000, 0.0000, 0.0000, -0.3408, 0.4463, 0.5164, 0.6465, -0.0267, -0.0034, 0.0156, 0.0000, 0.0000, 0.0000, 0.0000
2, 0.7500, 75, -0.5089, -0.5370, -0.6650, 1.4371, -2.3342, 0.0931, 0.0000, 0.0000, 0.0000, 0.0000, 0.0000, 0.0000, 0.8153, -0.1377, 0.3850, 0.4100, -0.0059, -0.0031, -0.0008, 0.0000, 0.0000, 0.0000, 0.0000
3, 0.7600, 76, -0.1997, -0.9663, -0.0899, 2.3810, 3.3847, 0.8852, 0.0000, 0.0000, 0.0000, 0.0000, 0.0000, 0.0000, -0.3405, 0.4462, 0.5166, 0.6466, -0.0254, -0.0056, 0.0217, 0.0000, 0.0000, 0.0000, 0.0000
1, 0.7600, 76, 0.3474, -0.5844, -0.7376, 0.1150, 0.6017, 0.1248, 0.0000, 0.0000, 0.0000, 0.0000, 0.0000, 0.0000, -0.8248, 0.1926, 0.3093, 0.4324, -0.0038, -0.0008, 0.0031, 0.0000, 0.0000, 0.0000, 0.0000
2, 0.7600, 76, -0.5124, -0.5399, -0.6649, 1.2398, -2.2151, 0.0339, 0.0000, 0.0000, 0.0000, 0.0000, 0.0000, 0.0000, 0.8152, -0.1377, 0.3852, 0.4100, -0.0026, -0.0004, -0.0006, 0.0000, 0.0000, 0.0000, 0.0000
2, 0.7700, 77, -0.5077, -0.5393, -0.6712, 1.0803, -2.2120, -0.1636, 0.0000, 0.0000, 0.0000, 0.0000, 0.0000, 0.0000, 0.8151, -0.1377, 0.3854, 0.4100, -0.0076, -0.0011, 0.0060, 0.0000, 0.0000, 0.0000, 0.0000
2, 0.7800, 78, -0.5119, -0.5379, -0.6658, 1.8084, -3.4325, -0.2092, 0.0000, 0.0000, 0.0000, 0.0000, 0.0000, 0.0000, 0.8150, -0.1377, 0.3857, 0.4100, -0.0037, -0.0027, 0.0011, 0.0000, 0.0000, 0.0000, 0.0000
1, 0.7700, 77, 0.3400, -0.5869, -0.7378, 0.0815, 0.5516, 0.0378, 0.0000, 0.0000, 0.0000, 0.0000, 0.0000, 0.0000, -0.8248, 0.1926, 0.3093, 0.4324, 0.0037, 0.0017, 0.0033, 0.0000, 0.0000, 0.0000, 0.0000
3, 0.7700, 77, -0.1967, -0.9650, -0.0885, 2.6814, 3.3130, 0.8185, 0.0000, 0.0000, 0.0000, 0.0000, 0.0000, 0.0000, -0.3404, 0.4460, 0.5168, 0.6466, -0.0284, -0.0069, 0.0206, 0.0000, 0.0000, 0.0000, 0.0000
2, 0.7900, 79, -0.5073, -0.5435, -0.6705, 2.0358, -4.5531, -0.3072, 0.0000, 0.0000, 0.0000, 0.0000, 0.0000, 0.0000, 0.8148, -0.1377, 0.3861, 0.4100, -0.0087, 0.0027, 0.0062, 0.0000, 0.0000, 0.0000, 0.0000
3, 0.7800, 78, -0.2002, -0.9666, -0.0907, 2.9134, 3.4346, 0.6800, 0.0000, 0.0000, 0.0000, 0.0000, 0.0000, 0.0000, -0.3401, 0.4459, 0.5171, 0.6467, -0.0247, -0.0054, 0.0228, 0.0000, 0.0000, 0.0000, 0.0000
1, 0.7800, 78, 0.3432, -0.5871, -0.7369, -0.0412, 0.6030, -0.0318, 0.0000, 0.0000, 0.0000, 0.0000, 0.0000, 0.0000, -0.8247, 0.1926, 0.3094, 0.4325, 0.0005, 0.0019, 0.0025, 0.0000, 0.0000, 0.0000, 0.0000
2, 0.8000, 80, -0.5101, -0.5394, -0.6605, 2.6502, -5.3372, -0.0772, 0.0000, 0.0000, 0.0000, 0.0000, 0.0000, 0.0000, 0.8146, -0.1377, 0.3865, 0.4100, -0.0065, -0.0017, -0.0031, 0.0000, 0.0000, 0.0000, 0.0000
1, 0.7900, 79, 0.3466, -0.5892, -0.7340, -0.3802, 0.8870, 0.1425, 0.0000, 0.0000, 0.0000, 0.0000, 0.0000, 0.0000, -0.8247, 0.1925, 0.3094, 0.4325, -0.0027, 0.0041, -0.0004, 0.0000, 0.0000, 0.0000, 0.0000
3, 0.7900, 79, -0.2013, -0.9683, -0.0888, 3.0031, 3.6430, 0.6444, 0.0000, 0.0000, 0.0000, 0.0000, 0.0000, 0.0000, -0.3398, 0.4458, 0.5173, 0.6467, -0.0237, -0.0037, 0.0214, 0.0000, 0.0000, 0.0000, 0.0000
2, 0.8100, 81, -0.5150, -0.5333, -0.6570, 1.7708, -4.8106, -0.2995, 0.0000, 0.0000, 0.0000, 0.0000, 0.0000, 0.0000, 0.8144, -0.1376, 0.3869, 0.4100, -0.0021, -0.0081, -0.0059, 0.0000, 0.0000, 0.0000, 0.0000
3, 0.8000, 80, -0.2081, -0.9685, -0.0823, 3.6729, 3.9467, 0.7355, 0.0000, 0.0000, 0.0000, 0.0000, 0.0000, 0.0000, -0.3394, 0.4457, 0.5176, 0.6467, -0.0170, -0.0036, 0.0152, 0.0000, 0.0000, 0.0000, 0.0000
3, 0.8100, 81, -0.2059, -0.9623, -0.0740, 5.1789, 4.6302, 0.4646, 0.0000, 0.0000, 0.0000, 0.0000, 0.0000, 0.0000, -0.3390, 0.4456, 0.5180, 0.6467, -0.0193, -0.0097, 0.0076, 0.0000, 0.0000, 0.0000, 0.0000
1, 0.8000, 80, 0.3454, -0.5867, -0.7356, -0.6450, 1.1080, 0.0725, 0.0000, 0.0000, 0.0000, 0.0000, 0.0000, 0.0000, -0.8247, 0.1925, 0.3095, 0.4325, -0.0015, 0.0016, 0.0012, 0.0000, 0.0000, 0.0000, 0.0000
2, 0.8200, 82, -0.5170, -0.5395, -0.6627, 1.4818, -4.3996, -0.5011, 0.0000, 0.0000, 0.0000, 0.0000, 0.0000, 0.0000, 0.8142, -0.1376, 0.3873, 0.4100, -0.0007, -0.0021, 0.0004, 0.0000, 0.0000, 0.0000, 0.0000
1, 0.8100, 81, 0.3369, -0.5887, -0.7399, -0.9646, 1.6027, -0.0337, 0.0000, 0.0000, 0.0000, 0.0000, 0.0000, 0.0000, -0.8247, 0.1923, 0.3095, 0.4326, 0.0071, 0.0037, 0.0056, 0.0000, 0.0000, 0.0000, 0.0000
3, 0.8200, 82, -0.1894, -0.9692, -0.0809, 6.8417, 5.0159, 0.2146, 0.0000, 0.0000, 0.0000, 0.0000, 0.0000, 0.0000, -0.3386, 0.4454, 0.5186, 0.6465, -0.0356, -0.0029, 0.0154, 0.0000, 0.0000, 0.0000, 0.0000
2, 0.8300, 83, -0.5200, -0.5396, -0.6599, 1.5729, -4.4631, -0.6898, 0.0000, 0.0000, 0.0000, 0.0000, 0.0000, 0.0000, 0.8140, -0.1376, 0.3877, 0.4101, 0.0019, -0.0022, -0.0019, 0.0000, 0.0000, 0.0000, 0.0000
3, 0.8300, 83, -0.1845, -0.9678, -0.0834, 6.9705, 5.1762, -0.0649, 0.0000, 0.0000, 0.0000, 0.0000, 0.0000, 0.0000, -0.3381, 0.4453, 0.5191, 0.6464, -0.0403, -0.0045, 0.0187, 0.0000, 0.0000, 0.0000, 0.0000
1, 0.8200, 82, 0.3459, -0.5861, -0.7354, -1.2112, 2.0671, -0.3146, 0.0000, 0.0000, 0.0000, 0.0000, 0.0000, 0.0000, -0.8247, 0.1922, 0.3096, 0.4326, -0.0016, 0.0012, 0.0010, 0.0000, 0.0000, 0.0000, 0.0000
2, 0.8400, 84, -0.5113, -0.5432, -0.6683, 1.4536, -4.9223, -0.7644, 0.0000, 0.0000, 0.0000, 0.0000, 0.0000, 0.0000, 0.8138, -0.1375, 0.3881, 0.4101, -0.0073, 0.0012, 0.0070, 0.0000, 0.0000, 0.0000, 0.0000
1, 0.8300, 83, 0.3397, -0.5858, -0.7374, -1.4033, 2.0152, -0.3835, 0.0000, 0.0000, 0.0000, 0.0000, 0.0000, 0.0000, -0.8246, 0.1920, 0.3097, 0.4326, 0.0049, 0.0011, 0.0030, 0.0000, 0.0000, 0.0000, 0.0000
3, 0.8400, 84, -0.1801, -0.9710, -0.0817, 7.2660, 6.2778, -0.5589, 0.0000, 0.0000, 0.0000, 0.0000, 0.0000, 0.0000, -0.3376, 0.4452, 0.5197, 0.6463, -0.0445, -0.0014, 0.0180, 0.0000, 0.0000, 0.0000, 0.0000
2, 0.8500, 85, -0.5131, -0.5428, -0.6598, 1.3315, -5.1608, -0.8039, 0.0000, 0.0000, 0.0000, 0.0000, 0.0000, 0.0000, 0.8136, -0.1375, 0.3885, 0.4102, -0.0061, 0.0005, -0.0009, 0.0000, 0.0000, 0.0000, 0.0000
3, 0.8500, 85, -0.1766, -0.9778, -0.0823, 6.5783, 6.4411, -0.4961, 0.0000, 0.0000, 0.0000, 0.0000, 0.0000, 0.0000, -0.3371, 0.4450, 0.5203, 0.6463, -0.0479, 0.0053, 0.0195, 0.0000, 0.0000, 0.0000, 0.0000
1, 0.8400, 84, 0.3467, -0.5835, -0.7358, -1.3964, 1.8346, -0.7843, 0.0000, 0.0000, 0.0000, 0.0000, 0.0000, 0.0000, -0.8246, 0.1918, 0.3098, 0.4327, -0.0017, -0.0010, 0.0014, 0.0000, 0.0000, 0.0000, 0.0000
2, 0.8600, 86, -0.5212, -0.5404, -0.6529, 0.7569, -4.8048, -0.9110, 0.0000, 0.0000, 0.0000, 0.0000, 0.0000, 0.0000, 0.8134, -0.1374, 0.3888, 0.4103, 0.0016, -0.0021, -0.0071, 0.0000, 0.0000, 0.0000, 0.0000
2, 0.8700, 87, -0.5116, -0.5395, -0.6574, 0.5211, -4.4652, -0.9364, 0.0000, 0.0000, 0.0000, 0.0000, 0.0000, 0.0000, 0.8132, -0.1373, 0.3891, 0.4104, -0.0084, -0.0031, -0.0022, 0.0000, 0.0000, 0.0000, 0.0000
1, 0.8500, 85, 0.3461, -0.5834, -0.7399, -1.3966, 1.6784, -0.6613, 0.0000, 0.0000, 0.0000, 0.0000, 0.0000, 0.0000, -0.8246, 0.1916, 0.3099, 0.4327, -0.0009, -0.0009, 0.0054, 0.0000, 0.0000, 0.0000, 0.0000
3, 0.8600, 86, -0.1841, -0.9789, -0.0744, 6.5068, 6.8387, -0.3248, 0.0000, 0.0000, 0.0000, 0.0000, 0.0000, 0.0000, -0.3365, 0.4448, 0.5209, 0.6462, -0.0402, 0.0064, 0.0124, 0.0000, 0.0000, 0.0000, 0.0000
3, 0.8700, 87, -0.1765, -0.9854, -0.0799, 7.5731, 6.8857, 0.2257, 0.0000, 0.0000, 0.0000, 0.0000, 0.0000, 0.0000, -0.3360, 0.4445, 0.5216, 0.6461, -0.0476, 0.0128, 0.0188, 0.0000, 0.0000, 0.0000, 0.0000
1, 0.8600, 86, 0.3456, -0.5858, -0.7381, -1.2554, 1.6979, -0.7143, 0.0000, 0.0000, 0.0000, 0.0000, 0.0000, 0.0000, -0.8246, 0.1914, 0.3100, 0.4327, -0.0001, 0.0018, 0.0036, 0.0000, 0.0000, 0.0000, 0.0000
1, 0.8700, 87, 0.3414, -0.5813, -0.7383, -1.3934, 1.5965, -0.8530, 0.0000, 0.0000, 0.0000, 0.0000, 0.0000, 0.0000, -0.8247, 0.1913, 0.3101, 0.4327, 0.0044, -0.0025, 0.0037, 0.0000, 0.0000, 0.0000, 0.0000
1, 0.8800, 88, 0.3450, -0.5852, -0.7367, -1.6007, 1.3572, -0.9733, 0.0000, 0.0000, 0.0000, 0.0000, 0.0000, 0.0000, -0.8247, 0.1911, 0.3101, 0.4327, 0.0010, 0.0016, 0.0020, 0.0000, 0.0000, 0.0000, 0.0000
3, 0.8800, 88, -0.1735, -0.9773, -0.0796, 6.5120, 6.3575, 0.2898, 0.0000, 0.0000, 0.0000, 0.0000, 0.0000, 0.0000, -0.3355, 0.4443, 0.5221, 0.6461, -0.0504, 0.0045, 0.0193, 0.0000, 0.0000, 0.0000, 0.0000
2, 0.8800, 88, -0.5206, -0.5361, -0.6493, -0.0922, -3.8899, -0.9573, 0.0000, 0.0000, 0.0000, 0.0000, 0.0000, 0.0000, 0.8130, -0.1372, 0.3894, 0.4105, 0.0001, -0.0067, -0.0100, 0.0000, 0.0000, 0.0000, 0.0000
2, 0.8900, 89, -0.5202, -0.5386, -0.6558, -0.4212, -2.9985, -1.3342, 0.0000, 0.0000, 0.0000, 0.0000, 0.0000, 0.0000, 0.8129, -0.1371, 0.3896, 0.4107, -0.0005, -0.0041, -0.0031, 0.0000, 0.0000, 0.0000, 0.0000
3, 0.8900, 89, -0.1746, -0.9736, -0.0806, 6.1600, 5.9297, 0.1325, 0.0000, 0.0000, 0.0000, 0.0000, 0.0000, 0.0000, -0.3349, 0.4442, 0.5226, 0.6461, -0.0492, 0.0008, 0.0212, 0.0000, 0.0000, 0.0000, 0.0000
1, 0.8900, 89, 0.3367, -0.5868, -0.7401, -1.7931, 1.6338, -1.2360, 0.0000, 0.0000, 0.0000, 0.0000, 0.0000, 0.0000, -0.8247, 0.1908, 0.3102, 0.4327, 0.0097, 0.0035, 0.0054, 0.0000, 0.0000, 0.0000, 0.0000
1, 0.9000, 90, 0.3475, -0.5830, -0.7377, -1.8968, 1.7393, -1.4457, 0.0000, 0.0000, 0.0000, 0.0000, 0.0000, 0.0000, -0.8248, 0.1906, 0.3103, 0.4327, -0.0008, 0.0000, 0.0029, 0.0000, 0.0000, 0.0000, 0.0000
2, 0.9000, 90, -0.4991, -0.5412, -0.6684, -0.7582, -3.2231, -1.2940, 0.0000, 0.0000, 0.0000, 0.0000, 0.0000, 0.0000, 0.8127, -0.1369, 0.3898, 0.4108, -0.0219, -0.0017, 0.0097, 0.0000, 0.0000, 0.0000, 0.0000
3, 0.9000, 90, -0.1783, -0.9722, -0.0837, 5.6635, 5.1881, 0.0983, 0.0000, 0.0000, 0.0000, 0.0000, 0.0000, 0.0000, -0.3345, 0.4440, 0.5231, 0.6460, -0.0455, -0.0006, 0.0250, 0.0000, 0.0000, 0.0000, 0.0000
3, 0.9100, 91, -0.1851, -0.9670, -0.0794, 5.6034, 4.3676, 0.2955, 0.0000, 0.0000, 0.0000, 0.0000, 0.0000, 0.0000, -0.3340, 0.4440, 0.5235, 0.6459, -0.0387, -0.0059, 0.0214, 0.0000, 0.0000, 0.0000, 0.0000
2, 0.9100, 91, -0.5114, -0.5497, -0.6614, -0.2360, -3.6642, -1.2063, 0.0000, 0.0000, 0.0000, 0.0000, 0.0000, 0.0000, 0.8126, -0.1368, 0.3900, 0.4110, -0.0099, 0.0068, 0.0030, 0.0000, 0.0000, 0.0000, 0.0000
1, 0.9100, 91, 0.3477, -0.5836, -0.7403, -1.7724, 1.4827, -1.3750, 0.0000, 0.0000, 0.0000, 0.0000, 0.0000, 0.0000, -0.8248, 0.1904, 0.3103, 0.4326, -0.0006, 0.0010, 0.0054, 0.0000, 0.0000, 0.0000, 0.0000
3, 0.9200, 92, -0.1852, -0.9700, -0.0782, 6.2250, 3.8096, 0.9161, 0.0000, 0.0000, 0.0000, 0.0000, 0.0000, 0.0000, -0.3337, 0.4439, 0.5239, 0.6458, -0.0385, -0.0030, 0.0211, 0.0000, 0.0000, 0.0000, 0.0000
2, 0.9200, 92, -0.5230, -0.5363, -0.6508, 0.3907, -3.9365, -1.0101, 0.0000, 0.0000, 0.0000, 0.0000, 0.0000, 0.0000, 0.8124, -0.1367, 0.3903, 0.4111, 0.0013, -0.0067, -0.0073, 0.0000, 0.0000, 0.0000, 0.0000
2, 0.9300, 93, -0.5050, -0.5447, -0.6610, 0.0646, -3.5127, -1.0211, 0.0000, 0.0000, 0.0000, 0.0000, 0.0000, 0.0000, 0.8122, -0.1367, 0.3905, 0.4112, -0.0170, 0.0016, 0.0033, 0.0000, 0.0000, 0.0000, 0.0000
2, 0.9400, 94, -0.5304, -0.5314, -0.6520, -0.6680, -3.4672, -0.9946, 0.0000, 0.0000, 0.0000, 0.0000, 0.0000, 0.0000, 0.8121, -0.1366, 0.3907, 0.4113, 0.0083, -0.0118, -0.0055, 0.0000, 0.0000, 0.0000, 0.0000
1, 0.9200, 92, 0.3498, -0.5798, -0.7414, -1.7008, 1.3986, -1.4097, 0.0000, 0.0000, 0.0000, 0.0000, 0.0000, 0.0000, -0.8248, 0.1901, 0.3104, 0.4326, -0.0024, -0.0026, 0.0064, 0.0000, 0.0000, 0.0000, 0.0000
3, 0.9300, 93, -0.1871, -0.9716, -0.0783, 6.3749, 3.8499, 1.4585, 0.0000, 0.0000, 0.0000, 0.0000, 0.0000, 0.0000, -0.3332, 0.4439, 0.5244, 0.6457, -0.0366, -0.0015, 0.0220, 0.0000, 0.0000, 0.0000, 0.0000
2, 0.9500, 95, -0.5206, -0.5446, -0.6544, -1.9687, -3.3610, -1.6161, 0.0000, 0.0000, 0.0000, 0.0000, 0.0000, 0.0000, 0.8119, -0.1364, 0.3909, 0.4116, -0.0018, 0.0014, -0.0029, 0.0000, 0.0000, 0.0000, 0.0000
1, 0.9300, 93, 0.3461, -0.5798, -0.7412, -1.3140, 1.3851, -1.3935, 0.0000, 0.0000, 0.0000, 0.0000, 0.0000, 0.0000, -0.8249, 0.1900, 0.3105, 0.4326, 0.0016, -0.0022, 0.0061, 0.0000, 0.0000, 0.0000, 0.0000
2, 0.9600, 96, -0.5045, -0.5428, -0.6534, -1.9372, -3.1988, -1.2136, 0.0000, 0.0000, 0.0000, 0.0000, 0.0000, 0.0000, 0.8118, -0.1361, 0.3910, 0.4118, -0.0181, -0.0003, -0.0038, 0.0000, 0.0000, 0.0000, 0.0000
1, 0.9400, 94, 0.3453, -0.5784, -0.7416, -1.1012, 1.1646, -1.3757, 0.0000, 0.0000, 0.0000, 0.0000, 0.0000, 0.0000, -0.8249, 0.1898, 0.3105, 0.4325, 0.0027, -0.0035, 0.0065, 0.0000, 0.0000, 0.0000, 0.0000
3, 0.9400, 94, -0.1883, -0.9758, -0.0739, 6.1567, 4.0871, 1.9266, 0.0000, 0.0000, 0.0000, 0.0000, 0.0000, 0.0000, -0.3327, 0.4439, 0.5248, 0.6457, -0.0357, 0.0028, 0.0185, 0.0000, 0.0000, 0.0000, 0.0000
2, 0.9700, 97, -0.5271, -0.5359, -0.6511, -2.6082, -2.2487, -1.2535, 0.0000, 0.0000, 0.0000, 0.0000, 0.0000, 0.0000, 0.8117, -0.1359, 0.3910, 0.4120, 0.0043, -0.0071, -0.0061, 0.0000, 0.0000, 0.0000, 0.0000
3, 0.9500, 95, -0.1885, -0.9732, -0.0684, 6.4092, 4.2611, 2.6961, 0.0000, 0.0000, 0.0000, 0.0000, 0.0000, 0.0000, -0.3321, 0.4440, 0.5251, 0.6456, -0.0359, 0.0002, 0.0139, 0.0000, 0.0000, 0.0000, 0.0000
1, 0.9500, 95, 0.3457, -0.5802, -0.7421, -0.7121, 0.9985, -1.4286, 0.0000, 0.0000, 0.0000, 0.0000, 0.0000, 0.0000, -0.8250, 0.1897, 0.3106, 0.4325, 0.0026, -0.0014, 0.0070, 0.0000, 0.0000, 0.0000, 0.0000
2, 0.9800, 98, -0.5133, -0.5438, -0.6565, -3.0694, -2.2058, -1.8280, 0.0000, 0.0000, 0.0000, 0.0000, 0.0000, 0.0000, 0.8116, -0.1358, 0.3910, 0.4123, -0.0096, 0.0011, -0.0008, 0.0000, 0.0000, 0.0000, 0.0000
1, 0.9600, 96, 0.3474, -0.5823, -0.7405, -0.6054, 0.8973, -1.4459, 0.0000, 0.0000, 0.0000, 0.0000, 0.0000, 0.0000, -0.8250, 0.1895, 0.3106, 0.4324, 0.0011, 0.0009, 0.0053, 0.0000, 0.0000, 0.0000, 0.0000
3, 0.9600, 96, -0.1940, -0.9710, -0.0605, 6.7222, 4.8755, 3.1313, 0.0000, 0.0000, 0.0000, 0.0000, 0.0000, 0.0000, -0.3314, 0.4441, 0.5255, 0.6456, -0.0309, -0.0019, 0.0069, 0.0000, 0.0000, 0.0000, 0.0000
3, 0.9700, 97, -0.1933, -0.9767, -0.0587, 7.3699, 5.2438, 3.5013, 0.0000, 0.0000, 0.0000, 0.0000, 0.0000, 0.0000, -0.3308, 0.4441, 0.5260, 0.6455, -0.0320, 0.0038, 0.0061, 0.0000, 0.0000, 0.0000, 0.0000
2, 0.9900, 99, -0.5398, -0.5313, -0.6425, -3.2406, -1.2171, -1.9201, 0.0000, 0.0000, 0.0000, 0.0000, 0.0000, 0.0000, 0.8115, -0.1356, 0.3910, 0.4125, 0.0171, -0.0114, -0.0150, 0.0000, 0.0000, 0.0000, 0.0000
1, 0.9700, 97, 0.3545, -0.5806, -0.7361, -0.5675, 0.5033, -1.3916, 0.0000, 0.0000, 0.0000, 0.0000, 0.0000, 0.0000, -0.8250, 0.1894, 0.3107, 0.4323, -0.0057, -0.0007, 0.0009, 0.0000, 0.0000, 0.0000, 0.0000
2, 1.0000, 100, -0.5304, -0.5209, -0.6469, -3.6006, -0.4509, -2.8389, 0.0000, 0.0000, 0.0000, 0.0000, 0.0000, 0.0000, 0.8115, -0.1354, 0.3908, 0.4128, 0.0078, -0.0216, -0.0108, 0.0000, 0.0000, 0.0000, 0.0000
1, 0.9800, 98, 0.3544, -0.5799, -0.7392, -0.3727, 0.1436, -1.2508, 0.0000, 0.0000, 0.0000, 0.0000, 0.0000, 0.0000, -0.8251, 0.1894, 0.3107, 0.4322, -0.0055, -0.0012, 0.0039, 0.0000, 0.0000, 0.0000, 0.0000
1, 0.9900, 99, 0.3519, -0.5793, -0.7375, -0.3343, -0.3537, -1.1611, 0.0000, 0.0000, 0.0000, 0.0000, 0.0000, 0.0000, -0.8252, 0.1893, 0.3107, 0.4322, -0.0029, -0.0017, 0.0023, 0.0000, 0.0000, 0.0000, 0.0000
3, 0.9800, 98, -0.1899, -0.9720, -0.0606, 7.9333, 5.5307, 3.6265, 0.0000, 0.0000, 0.0000, 0.0000, 0.0000, 0.0000, -0.3300, 0.4442, 0.5265, 0.6455, -0.0358, -0.0008, 0.0091, 0.0000, 0.0000, 0.0000, 0.0000
2, 1.0100, 101, -0.5002, -0.5506, -0.6627, -3.2845, 0.2590, -3.2804, 0.0000, 0.0000, 0.0000, 0.0000, 0.0000, 0.0000, 0.8114, -0.1353, 0.3907, 0.4132, -0.0221, 0.0082, 0.0047, 0.0000, 0.0000, 0.0000, 0.0000
3, 0.9900, 99, -0.1845, -0.9785, -0.0618, 8.0861, 5.9549, 4.0965, 0.0000, 0.0000, 0.0000, 0.0000, 0.0000, 0.0000, -0.3292, 0.4442, 0.5270, 0.6455, -0.0419, 0.0057, 0.0114, 0.0000, 0.0000, 0.0000, 0.0000
3, 1.0000, 100, -0.1807, -0.9839, -0.0559, 7.9976, 6.6475, 4.3181, 0.0000, 0.0000, 0.0000, 0.0000, 0.0000, 0.0000, -0.3283, 0.4443, 0.5274, 0.6455, -0.0463, 0.0112, 0.0066, 0.0000, 0.0000, 0.0000, 0.0000
1, 1.0000, 100, 0.3542, -0.5783, -0.7355, -0.3678, -0.9924, -0.8609, 0.0000, 0.0000, 0.0000, 0.0000, 0.0000, 0.0000, -0.8252, 0.1893, 0.3107, 0.4321, -0.0052, -0.0026, 0.0001, 0.0000, 0.0000, 0.0000, 0.0000
2, 1.0200, 102, -0.5035, -0.5396, -0.6561, -2.8647, 0.7627, -2.7939, 0.0000, 0.0000, 0.0000, 0.0000, 0.0000, 0.0000, 0.8114, -0.1352, 0.3905, 0.4135, -0.0184, -0.0027, -0.0023, 0.0000, 0.0000, 0.0000, 0.0000
1, 1.0100, 101, 0.3579, -0.5784, -0.7360, -0.3803, -1.7299, -0.7523, 0.0000, 0.0000, 0.0000, 0.0000, 0.0000, 0.0000, -0.8253, 0.1893, 0.3105, 0.4320, -0.0089, -0.0024, 0.0006, 0.0000, 0.0000, 0.0000, 0.0000
3, 1.0100, 101, -0.1787, -0.9840, -0.0470, 7.6240, 7.0458, 4.6439, 0.0000, 0.0000, 0.0000, 0.0000, 0.0000, 0.0000, -0.3274, 0.4443, 0.5279, 0.6455, -0.0490, 0.0114, -0.0012, 0.0000, 0.0000, 0.0000, 0.0000
3, 1.0200, 102, -0.1703, -0.9804, -0.0476, 6.9833, 7.0808, 5.0223, 0.0000, 0.0000, 0.0000, 0.0000, 0.0000, 0.0000, -0.3266, 0.4442, 0.5284, 0.6456, -0.0581, 0.0079, 0.0004, 0.0000, 0.0000, 0.0000, 0.0000
2, 1.0300, 103, -0.5474, -0.5193, -0.6455, -3.1026, 1.5021, -3.2027, 0.0000, 0.0000, 0.0000, 0.0000, 0.0000, 0.0000, 0.8113, -0.1350, 0.3903, 0.4137, 0.0258, -0.0229, -0.0133, 0.0000, 0.0000, 0.0000, 0.0000
1, 1.0200, 102, 0.3538, -0.5801, -0.7374, -0.6597, -2.4398, -0.4334, 0.0000, 0.0000, 0.0000, 0.0000, 0.0000, 0.0000, -0.8254, 0.1893, 0.3103, 0.4320, -0.0049, -0.0005, 0.0018, 0.0000, 0.0000, 0.0000, 0.0000
2, 1.0400, 104, -0.5446, -0.5282, -0.6382, -3.9797, 2.2669, -4.2271, 0.0000, 0.0000, 0.0000, 0.0000, 0.0000, 0.0000, 0.8113, -0.1350, 0.3899, 0.4141, 0.0234, -0.0138, -0.0210, 0.0000, 0.0000, 0.0000, 0.0000
1, 1.0300, 103, 0.3557, -0.5812, -0.7373, -0.6046, -2.9382, -0.2739, 0.0000, 0.0000, 0.0000, 0.0000, 0.0000, 0.0000, -0.8255, 0.1894, 0.3101, 0.4319, -0.0072, 0.0006, 0.0015, 0.0000, 0.0000, 0.0000, 0.0000
3, 1.0300, 103, -0.1622, -0.9787, -0.0473, 5.6895, 7.3644, 5.5330, 0.0000, 0.0000, 0.0000, 0.0000, 0.0000, 0.0000, -0.3257, 0.4442, 0.5287, 0.6458, -0.0668, 0.0063, 0.0008, 0.0000, 0.0000, 0.0000, 0.0000
2, 1.0500, 105, -0.5263, -0.5308, -0.6535, -4.1078, 3.1760, -5.3818, 0.0000, 0.0000, 0.0000, 0.0000, 0.0000, 0.0000, 0.8113, -0.1350, 0.3895, 0.4146, 0.0059, -0.0112, -0.0063, 0.0000, 0.0000, 0.0000, 0.0000
3, 1.0400, 104, -0.1561, -0.9798, -0.0619, 4.5163, 7.6955, 6.2191, 0.0000, 0.0000, 0.0000, 0.0000, 0.0000, 0.0000, -0.3248, 0.4442, 0.5289, 0.6460, -0.0738, 0.0077, 0.0159, 0.0000, 0.0000, 0.0000, 0.0000
1, 1.0400, 104, 0.3555, -0.5790, -0.7388, -0.7106, -3.3382, 0.0254, 0.0000, 0.0000, 0.0000, 0.0000, 0.0000, 0.0000, -0.8256, 0.1895, 0.3098, 0.4319, -0.0074, -0.0015, 0.0027, 0.0000, 0.0000, 0.0000, 0.0000
2, 1.0600, 106, -0.4926, -0.5549, -0.6698, -3.6040, 2.8747, -5.4690, 0.0000, 0.0000, 0.0000, 0.0000, 0.0000, 0.0000, 0.8112, -0.1350, 0.3891, 0.4151, -0.0269, 0.0128, 0.0092, 0.0000, 0.0000, 0.0000, 0.0000
2, 1.0700, 107, -0.4894, -0.5494, -0.6658, -3.0004, 2.7609, -4.7152, 0.0000, 0.0000, 0.0000, 0.0000, 0.0000, 0.0000, 0.8112, -0.1351, 0.3887, 0.4155, -0.0293, 0.0073, 0.0047, 0.0000, 0.0000, 0.0000, 0.0000
1, 1.0500, 105, 0.3544, -0.5816, -0.7416, -0.9221, -3.4969, 0.1666, 0.0000, 0.0000, 0.0000, 0.0000, 0.0000, 0.0000, -0.8257, 0.1895, 0.3096, 0.4318, -0.0067, 0.0013, 0.0052, 0.0000, 0.0000, 0.0000, 0.0000
3, 1.0500, 105, -0.1527, -0.9753, -0.0646, 3.5550, 7.7477, 6.8042, 0.0000, 0.0000, 0.0000, 0.0000, 0.0000, 0.0000, -0.3240, 0.4442, 0.5291, 0.6464, -0.0783, 0.0034, 0.0190, 0.0000, 0.0000, 0.0000, 0.0000
3, 1.0600, 106, -0.1543, -0.9723, -0.0566, 3.1760, 7.7075, 7.3251, 0.0000, 0.0000, 0.0000, 0.0000, 0.0000, 0.0000, -0.3231, 0.4442, 0.5292, 0.6467, -0.0778, 0.0007, 0.0112, 0.0000, 0.0000, 0.0000, 0.0000
2, 1.0800, 108, -0.4945, -0.5456, -0.6726, -2.6822, 2.6631, -4.0062, 0.0000, 0.0000, 0.0000, 0.0000, 0.0000, 0.0000, 0.8111, -0.1352, 0.3884, 0.4159, -0.0235, 0.0033, 0.0110, 0.0000, 0.0000, 0.0000, 0.0000
1, 1.0600, 106, 0.3490, -0.5818, -0.7368, -1.0124, -3.4491, 0.3064, 0.0000, 0.0000, 0.0000, 0.0000, 0.0000, 0.0000, -0.8258, 0.1896, 0.3093, 0.4318, -0.0018, 0.0016, 0.0001, 0.0000, 0.0000, 0.0000, 0.0000
1, 1.0700, 107, 0.3445, -0.5800, -0.7392, -1.2558, -3.4302, 0.0801, 0.0000, 0.0000, 0.0000, 0.0000, 0.0000, 0.0000, -0.8259, 0.1896, 0.3090, 0.4318, 0.0022, -0.0001, 0.0021, 0.0000, 0.0000, 0.0000, 0.0000
1, 1.0800, 108, 0.3457, -0.5794, -0.7436, -1.3760, -3.3407, -0.1993, 0.0000, 0.0000, 0.0000, 0.0000, 0.0000, 0.0000, -0.8260, 0.1896, 0.3087, 0.4318, 0.0006, -0.0005, 0.0063, 0.0000, 0.0000, 0.0000, 0.0000
1, 1.0900, 109, 0.3495, -0.5807, -0.7449, -1.2399, -3.0515, -0.0441, 0.0000, 0.0000, 0.0000, 0.0000, 0.0000, 0.0000, -0.8261, 0.1897, 0.3084, 0.4318, -0.0035, 0.0010, 0.0072, 0.0000, 0.0000, 0.0000, 0.0000
1, 1.1000, 110, 0.3422, -0.5790, -0.7466, -1.5225, -3.0215, 0.0266, 0.0000, 0.0000, 0.0000, 0.0000, 0.0000, 0.0000, -0.8262, 0.1897, 0.3081, 0.4318, 0.0033, -0.0006, 0.0086, 0.0000, 0.0000, 0.0000, 0.0000
2, 1.0900, 109, -0.5408, -0.5191, -0.6442, -2.7034, 2.9521, -3.9892, 0.0000, 0.0000, 0.0000, 0.0000, 0.0000, 0.0000, 0.8111, -0.1352, 0.3880, 0.4162, 0.0236, -0.0233, -0.0179, 0.0000, 0.0000, 0.0000, 0.0000
2, 1.1000, 110, -0.5492, -0.5130, -0.6437, -3.1163, 3.8446, -5.2587, 0.0000, 0.0000, 0.0000, 0.0000, 0.0000, 0.0000, 0.8111, -0.1353, 0.3876, 0.4166, 0.0328, -0.0294, -0.0190, 0.0000, 0.0000, 0.0000, 0.0000
2, 1.1100, 111, -0.4897, -0.5581, -0.6671, -3.2181, 3.7567, -5.9776, 0.0000, 0.0000, 0.0000, 0.0000, 0.0000, 0.0000, 0.8111, -0.1354, 0.3871, 0.4171, -0.0256, 0.0155, 0.0038, 0.0000, 0.0000, 0.0000, 0.0000
1, 1.1100, 111, 0.3506, -0.5789, -0.7446, -1.5090, -2.5251, 0.0066, 0.0000, 0.0000, 0.0000, 0.0000, 0.0000, 0.0000, -0.8263, 0.1896, 0.3079, 0.4318, -0.0054, -0.0005, 0.0062, 0.0000, 0.0000, 0.0000, 0.0000
3, 1.0700, 107, -0.1550, -0.9737, -0.0495, 3.8182, 6.9796, 7.7200, 0.0000, 0.0000, 0.0000, 0.0000, 0.0000, 0.0000, -0.3223, 0.4441, 0.5294, 0.6470, -0.0782, 0.0023, 0.0045, 0.0000, 0.0000, 0.0000, 0.0000
1, 1.1200, 112, 0.3497, -0.5791, -0.7426, -1.3312, -3.1438, 0.2710, 0.0000, 0.0000, 0.0000, 0.0000, 0.0000, 0.0000, -0.8264, 0.1897, 0.3076, 0.4318, -0.0049, -0.0000, 0.0039, 0.0000, 0.0000, 0.0000, 0.0000
2, 1.1200, 112, -0.5026, -0.5353, -0.6598, -3.2405, 3.7757, -5.2632, 0.0000, 0.0000, 0.0000, 0.0000, 0.0000, 0.0000, 0.8110, -0.1355, 0.3867, 0.4176, -0.0118, -0.0074, -0.0042, 0.0000, 0.0000, 0.0000, 0.0000
3, 1.0800, 108, -0.1465, -0.9721, -0.0446, 4.2698, 5.7904, 7.7845, 0.0000, 0.0000, 0.0000, 0.0000, 0.0000, 0.0000, -0.3214, 0.4442, 0.5295, 0.6473, -0.0877, 0.0009, -0.0000, 0.0000, 0.0000, 0.0000, 0.0000
3, 1.0900, 109, -0.1328, -0.9724, -0.0579, 3.8535, 5.1602, 8.2567, 0.0000, 0.0000, 0.0000, 0.0000, 0.0000, 0.0000, -0.3205, 0.4444, 0.5296, 0.6475, -0.1028, 0.0015, 0.0137, 0.0000, 0.0000, 0.0000, 0.0000
3, 1.1000, 110, -0.1244, -0.9798, -0.0648, 3.4200, 5.1879, 8.8990, 0.0000, 0.0000, 0.0000, 0.0000, 0.0000, 0.0000, -0.3197, 0.4447, 0.5296, 0.6478, -0.1126, 0.0092, 0.0211, 0.0000, 0.0000, 0.0000, 0.0000
3, 1.1100, 111, -0.1245, -0.9909, -0.0726, 2.8819, 6.1352, 9.7261, 0.0000, 0.0000, 0.0000, 0.0000, 0.0000, 0.0000, -0.3187, 0.4448, 0.5295, 0.6482, -0.1140, 0.0207, 0.0291, 0.0000, 0.0000, 0.0000, 0.0000
2, 1.1300, 113, -0.5044, -0.5497, -0.6575, -3.7438, 3.9371, -5.0016, 0.0000, 0.0000, 0.0000, 0.0000, 0.0000, 0.0000, 0.8110, -0.1356, 0.3862, 0.4180, -0.0090, 0.0069, -0.0072, 0.0000, 0.0000, 0.0000, 0.0000
2, 1.1400, 114, -0.4728, -0.5710, -0.6703, -3.6027, 3.6131, -4.1248, 0.0000, 0.0000, 0.0000, 0.0000, 0.0000, 0.0000, 0.8110, -0.1356, 0.3857, 0.4184, -0.0397, 0.0282, 0.0049, 0.0000, 0.0000, 0.0000, 0.0000
3, 1.1200, 112, -0.1287, -0.9983, -0.0757, 1.9785, 6.4864, 10.1000, 0.0000, 0.0000, 0.0000, 0.0000, 0.0000, 0.0000, -0.3180, 0.4448, 0.5295, 0.6486, -0.1113, 0.0286, 0.0323, 0.0000, 0.0000, 0.0000, 0.0000
1, 1.1300, 113, 0.3522, -0.5798, -0.7418, -1.3495, -3.3009, 0.4291, 0.0000, 0.0000, 0.0000, 0.0000, 0.0000, 0.0000, -0.8265, 0.1897, 0.3073, 0.4318, -0.0078, 0.0008, 0.0028, 0.0000, 0.0000, 0.0000, 0.0000
3, 1.1300, 113, -0.1401, -0.9989, -0.0696, 0.8641, 6.3045, 10.2836, 0.0000, 0.0000, 0.0000, 0.0000, 0.0000, 0.0000, -0.3170, 0.4449, 0.5294, 0.6491, -0.1012, 0.0294, 0.0260, 0.0000, 0.0000, 0.0000, 0.0000
1, 1.1400, 114, 0.3503, -0.5814, -0.7439, -1.1742, -3.4731, 0.5865, 0.0000, 0.0000, 0.0000, 0.0000, 0.0000, 0.0000, -0.8266, 0.1898, 0.3070, 0.4318, -0.0065, 0.0025, 0.0045, 0.0000, 0.0000, 0.0000, 0.0000
2, 1.1500, 115, -0.4913, -0.5456, -0.6700, -3.0388, 3.3782, -2.4828, 0.0000, 0.0000, 0.0000, 0.0000, 0.0000, 0.0000, 0.8111, -0.1356, 0.3854, 0.4186, -0.0205, 0.0029, 0.0040, 0.0000, 0.0000, 0.0000, 0.0000
2, 1.1600, 116, -0.5178, -0.5279, -0.6604, -3.3603, 3.1804, -2.0932, 0.0000, 0.0000, 0.0000, 0.0000, 0.0000, 0.0000, 0.8112, -0.1356, 0.3850, 0.4188, 0.0066, -0.0146, -0.0062, 0.0000, 0.0000, 0.0000, 0.0000
1, 1.1500, 115, 0.3466, -0.5806, -0.7438, -1.0863, -3.7839, 0.7973, 0.0000, 0.0000, 0.0000, 0.0000, 0.0000, 0.0000, -0.8267, 0.1899, 0.3067, 0.4318, -0.0033, 0.0017, 0.0041, 0.0000, 0.0000, 0.0000, 0.0000
3, 1.1400, 114, -0.1446, -1.0002, -0.0652, 0.7374, 5.1949, 10.1679, 0.0000, 0.0000, 0.0000, 0.0000, 0.0000, 0.0000, -0.3162, 0.4451, 0.5292, 0.6495, -0.0983, 0.0311, 0.0215, 0.0000, 0.0000, 0.0000, 0.0000
1, 1.1600, 116, 0.3517, -0.5800, -0.7437, -1.1926, -4.0632, 1.0436, 0.0000, 0.0000, 0.0000, 0.0000, 0.0000, 0.0000, -0.8268, 0.1900, 0.3063, 0.4319, -0.0090, 0.0013, 0.0037, 0.0000, 0.0000, 0.0000, 0.0000
2, 1.1700, 117, -0.5255, -0.5198, -0.6576, -3.6990, 3.3393, -2.4713, 0.0000, 0.0000, 0.0000, 0.0000, 0.0000, 0.0000, 0.8112, -0.1355, 0.3846, 0.4191, 0.0148, -0.0225, -0.0096, 0.0000, 0.0000, 0.0000, 0.0000
3, 1.1500, 115, -0.1383, -1.0020, -0.0593, -0.1785, 3.7010, 9.6985, 0.0000, 0.0000, 0.0000, 0.0000, 0.0000, 0.0000, -0.3155, 0.4453, 0.5289, 0.6500, -0.1063, 0.0333, 0.0154, 0.0000, 0.0000, 0.0000, 0.0000
3, 1.1600, 116, -0.1241, -1.0034, -0.0620, -0.9512, 2.7270, 9.2442, 0.0000, 0.0000, 0.0000, 0.0000, 0.0000, 0.0000, -0.3149, 0.4456, 0.5285, 0.6504, -0.1221, 0.0351, 0.0179, 0.0000, 0.0000, 0.0000, 0.0000
3, 1.1700, 117, -0.1148, -1.0058, -0.0605, -2.8225, 2.6093, 8.3204, 0.0000, 0.0000, 0.0000, 0.0000, 0.0000, 0.0000, -0.3146, 0.4453, 0.5284, 0.6508, -0.1326, 0.0379, 0.0159, 0.0000, 0.0000, 0.0000, 0.0000
2, 1.1800, 118, -0.4996, -0.5393, -0.6625, -3.8363, 3.3227, -3.3484, 0.0000, 0.0000, 0.0000, 0.0000, 0.0000, 0.0000, 0.8113, -0.1355, 0.3841, 0.4194, -0.0103, -0.0028, -0.0054, 0.0000, 0.0000, 0.0000, 0.0000
2, 1.1900, 119, -0.4870, -0.5488, -0.6672, -3.8714, 3.0412, -2.9313, 0.0000, 0.0000, 0.0000, 0.0000, 0.0000, 0.0000, 0.8113, -0.1355, 0.3838, 0.4197, -0.0222, 0.0068, -0.0013, 0.0000, 0.0000, 0.0000, 0.0000
3, 1.1800, 118, -0.1091, -1.0131, -0.0540, -5.0278, 2.4790, 7.3413, 0.0000, 0.0000, 0.0000, 0.0000, 0.0000, 0.0000, -0.3143, 0.4454, 0.5279, 0.6513, -0.1388, 0.0454, 0.0085, 0.0000, 0.0000, 0.0000, 0.0000
1, 1.1700, 117, 0.3513, -0.5728, -0.7471, -1.2257, -4.6148, 1.2561, 0.0000, 0.0000, 0.0000, 0.0000, 0.0000, 0.0000, -0.8269, 0.1901, 0.3059, 0.4319, -0.0093, -0.0058, 0.0067, 0.0000, 0.0000, 0.0000, 0.0000
3, 1.1900, 119, -0.1234, -1.0074, -0.0543, -8.2562, 1.3215, 6.1157, 0.0000, 0.0000, 0.0000, 0.0000, 0.0000, 0.0000, -0.3142, 0.4454, 0.5272, 0.6519, -0.1256, 0.0400, 0.0076, 0.0000, 0.0000, 0.0000, 0.0000
1, 1.1800, 118, 0.3494, -0.5805, -0.7455, -1.0860, -4.9264, 1.5366, 0.0000, 0.0000, 0.0000, 0.0000, 0.0000, 0.0000, -0.8270, 0.1902, 0.3055, 0.4320, -0.0081, 0.0020, 0.0047, 0.0000, 0.0000, 0.0000, 0.0000
3, 1.2000, 120, -0.1443, -0.9900, -0.0616, -10.0583, 0.6306, 5.1090, 0.0000, 0.0000, 0.0000, 0.0000, 0.0000, 0.0000, -0.3142, 0.4453, 0.5265, 0.6525, -0.1056, 0.0229, 0.0132, 0.0000, 0.0000, 0.0000, 0.0000
1, 1.1900, 119, 0.3497, -0.5788, -0.7478, -0.5554, -5.7653, 1.8708, 0.0000, 0.0000, 0.0000, 0.0000, 0.0000, 0.0000, -0.8271, 0.1905, 0.3050, 0.4320, -0.0093, 0.0002, 0.0066, 0.0000, 0.0000, 0.0000, 0.0000
2, 1.2000, 120, -0.4743, -0.5473, -0.6710, -3.9636, 2.7994, -1.9929, 0.0000, 0.0000, 0.0000, 0.0000, 0.0000, 0.0000, 0.8114, -0.1353, 0.3834, 0.4200, -0.0343, 0.0055, 0.0019, 0.0000, 0.0000, 0.0000, 0.0000
3, 1.2100, 121, -0.1633, -0.9780, -0.0545, -10.7043, 1.3395, 3.8759, 0.0000, 0.0000, 0.0000, 0.0000, 0.0000, 0.0000, -0.3144, 0.4451, 0.5257, 0.6532, -0.0874, 0.0112, 0.0042, 0.0000, 0.0000, 0.0000, 0.0000
1, 1.2000, 120, 0.3408, -0.5748, -0.7530, 1.0006, -5.2431, 2.2295, 0.0000, 0.0000, 0.0000, 0.0000, 0.0000, 0.0000, -0.8271, 0.1907, 0.3046, 0.4321, -0.0013, -0.0039, 0.0115, 0.0000, 0.0000, 0.0000, 0.0000
2, 1.2100, 121, -0.4818, -0.5507, -0.6752, -4.0758, 2.4440, -0.5145, 0.0000, 0.0000, 0.0000, 0.0000, 0.0000, 0.0000, 0.8115, -0.1352, 0.3831, 0.4201, -0.0264, 0.0093, 0.0054, 0.0000, 0.0000, 0.0000, 0.0000
3, 1.2200, 122, -0.1730, -0.9768, -0.0425, -10.3855, 1.8097, 1.7970, 0.0000, 0.0000, 0.0000, 0.0000, 0.0000, 0.0000, -0.3146, 0.4446, 0.5254, 0.6537, -0.0779, 0.0102, -0.0095, 0.0000, 0.0000, 0.0000, 0.0000
1, 1.2100, 121, 0.3384, -0.5683, -0.7615, 3.0241, -3.8262, 2.5471, 0.0000, 0.0000, 0.0000, 0.0000, 0.0000, 0.0000, -0.8271, 0.1912, 0.3044, 0.4322, 0.0002, -0.0108, 0.0198, 0.0000, 0.0000, 0.0000, 0.0000
2, 1.2200, 122, -0.4868, -0.5617, -0.6761, -4.1459, 1.5450, 0.9124, 0.0000, 0.0000, 0.0000, 0.0000, 0.0000, 0.0000, 0.8116, -0.1349, 0.3828, 0.4202, -0.0212, 0.0208, 0.0058, 0.0000, 0.0000, 0.0000, 0.0000
3, 1.2300, 123, -0.1854, -0.9604, -0.0253, -11.3129, 2.3173, -0.5900, 0.0000, 0.0000, 0.0000, 0.0000, 0.0000, 0.0000, -0.3150, 0.4441, 0.5248, 0.6543, -0.0652, -0.0061, -0.0286, 0.0000, 0.0000, 0.0000, 0.0000
1, 1.2200, 122, 0.3598, -0.5602, -0.7562, 5.6878, -2.0541, 3.4195, 0.0000, 0.0000, 0.0000, 0.0000, 0.0000, 0.0000, -0.8269, 0.1918, 0.3044, 0.4322, -0.0219, -0.0196, 0.0149, 0.0000, 0.0000, 0.0000, 0.0000
2, 1.2300, 123, -0.4906, -0.5442, -0.6796, -3.4281, 0.6243, 2.0008, 0.0000, 0.0000, 0.0000, 0.0000, 0.0000, 0.0000, 0.8118, -0.1346, 0.3826, 0.4202, -0.0174, 0.0039, 0.0088, 0.0000, 0.0000, 0.0000, 0.0000
3, 1.2400, 124, -0.2018, -0.9412, -0.0079, -11.0253, 4.2829, -3.5527, 0.0000, 0.0000, 0.0000, 0.0000, 0.0000, 0.0000, -0.3154, 0.4434, 0.5244, 0.6549, -0.0483, -0.0254, -0.0481, 0.0000, 0.0000, 0.0000, 0.0000
3, 1.2500, 125, -0.2126, -0.9253, 0.0039, -10.4341, 6.2839, -6.7400, 0.0000, 0.0000, 0.0000, 0.0000, 0.0000, 0.0000, -0.3159, 0.4425, 0.5243, 0.6554, -0.0366, -0.0414, -0.0619, 0.0000, 0.0000, 0.0000, 0.0000
2, 1.2400, 124, -0.4845, -0.5343, -0.6795, -2.7808, -0.2228, 2.8076, 0.0000, 0.0000, 0.0000, 0.0000, 0.0000, 0.0000, 0.8119, -0.1343, 0.3825, 0.4201, -0.0237, -0.0054, 0.0083, 0.0000, 0.0000, 0.0000, 0.0000
1, 1.2300, 123, 0.3894, -0.5472, -0.7554, 9.8076, 0.4126, 5.4359, 0.0000, 0.0000, 0.0000, 0.0000, 0.0000, 0.0000, -0.8265, 0.1926, 0.3047, 0.4324, -0.0520, -0.0340, 0.0149, 0.0000, 0.0000, 0.0000, 0.0000
2, 1.2500, 125, -0.4918, -0.5402, -0.6807, -1.6688, -1.1355, 3.6482, 0.0000, 0.0000, 0.0000, 0.0000, 0.0000, 0.0000, 0.8120, -0.1340, 0.3826, 0.4199, -0.0168, 0.0010, 0.0094, 0.0000, 0.0000, 0.0000, 0.0000
2, 1.2600, 126, -0.4887, -0.5440, -0.6748, -0.7000, -2.0154, 4.5013, 0.0000, 0.0000, 0.0000, 0.0000, 0.0000, 0.0000, 0.8121, -0.1338, 0.3827, 0.4196, -0.0205, 0.0053, 0.0035, 0.0000, 0.0000, 0.0000, 0.0000
2, 1.2700, 127, -0.4718, -0.5360, -0.6829, 0.1715, -2.2157, 5.4041, 0.0000, 0.0000, 0.0000, 0.0000, 0.0000, 0.0000, 0.8122, -0.1335, 0.3830, 0.4193, -0.0381, -0.0022, 0.0118, 0.0000, 0.0000, 0.0000, 0.0000
1, 1.2400, 124, 0.3977, -0.5497, -0.7721, 15.0347, 3.3148, 8.5465, 0.0000, 0.0000, 0.0000, 0.0000, 0.0000, 0.0000, -0.8258, 0.1938, 0.3054, 0.4326, -0.0608, -0.0336, 0.0330, 0.0000, 0.0000, 0.0000, 0.0000
1, 1.2500, 125, 0.3941, -0.5597, -0.7767, 20.3692, 6.0822, 11.6049, 0.0000, 0.0000, 0.0000, 0.0000, 0.0000, 0.0000, -0.8249, 0.1953, 0.3064, 0.4330, -0.0576, -0.0266, 0.0398, 0.0000, 0.0000, 0.0000, 0.0000
2, 1.2800, 128, -0.4671, -0.5409, -0.6814, 1.2592, -2.8858, 6.8548, 0.0000, 0.0000, 0.0000, 0.0000, 0.0000, 0.0000, 0.8124, -0.1333, 0.3832, 0.4188, -0.0436, 0.0031, 0.0106, 0.0000, 0.0000, 0.0000, 0.0000
3, 1.2600, 126, -0.2288, -0.9024, 0.0063, -10.2237, 7.9166, -10.4522, 0.0000, 0.0000, 0.0000, 0.0000, 0.0000, 0.0000, -0.3166, 0.4412, 0.5243, 0.6559, -0.0188, -0.0646, -0.0663, 0.0000, 0.0000, 0.0000, 0.0000
1, 1.2600, 126, 0.4443, -0.5474, -0.7833, 26.1436, 7.7635, 15.3659, 0.0000, 0.0000, 0.0000, 0.0000, 0.0000, 0.0000, -0.8237, 0.1973, 0.3077, 0.4336, -0.1082, -0.0427, 0.0493, 0.0000, 0.0000, 0.0000, 0.0000
3, 1.2700, 127, -0.2585, -0.8632, 0.0012, -9.7459, 9.4630, -14.3710, 0.0000, 0.0000, 0.0000, 0.0000, 0.0000, 0.0000, -0.3172, 0.4398, 0.5246, 0.6563, 0.0132, -0.1042, -0.0632, 0.0000, 0.0000, 0.0000, 0.0000
2, 1.2900, 129, -0.4767, -0.5389, -0.6753, 2.2568, -3.7012, 8.7033, 0.0000, 0.0000, 0.0000, 0.0000, 0.0000, 0.0000, 0.8125, -0.1331, 0.3837, 0.4182, -0.0350, 0.0016, 0.0049, 0.0000, 0.0000, 0.0000, 0.0000
1, 1.2700, 127, 0.4986, -0.5512, -0.8196, 33.4699, 8.3430, 22.2007, 0.0000, 0.0000, 0.0000, 0.0000, 0.0000, 0.0000, -0.8220, 0.2000, 0.3092, 0.4344, -0.1635, -0.0439, 0.0892, 0.0000, 0.0000, 0.0000, 0.0000
3, 1.2800, 128, -0.2831, -0.8183, -0.0112, -10.3552, 11.3399, -18.5461, 0.0000, 0.0000, 0.0000, 0.0000, 0.0000, 0.0000, -0.3182, 0.4380, 0.5250, 0.6567, 0.0406, -0.1497, -0.0529, 0.0000, 0.0000, 0.0000, 0.0000
1, 1.2800, 128, 0.4715, -0.5697, -0.8565, 40.3377, 9.8434, 29.8356, 0.0000, 0.0000, 0.0000, 0.0000, 0.0000, 0.0000, -0.8199, 0.2033, 0.3109, 0.4356, -0.1381, -0.0319, 0.1306, 0.0000, 0.0000, 0.0000, 0.0000
2, 1.3000, 130, -0.4911, -0.5324, -0.6581, 2.1729, -3.3566, 10.1138, 0.0000, 0.0000, 0.0000, 0.0000, 0.0000, 0.0000, 0.8128, -0.1328, 0.3841, 0.4174, -0.0219, -0.0043, -0.0118, 0.0000, 0.0000, 0.0000, 0.0000
3, 1.2900, 129, -0.2958, -0.8025, -0.0211, -9.9102, 16.2458, -21.6498, 0.0000, 0.0000, 0.0000, 0.0000, 0.0000, 0.0000, -0.3190, 0.4358, 0.5257, 0.6572, 0.0570, -0.1663, -0.0453, 0.0000, 0.0000, 0.0000, 0.0000
1, 1.2900, 129, 0.4312, -0.6217, -0.8682, 48.4169, 12.8768, 36.6204, 0.0000, 0.0000, 0.0000, 0.0000, 0.0000, 0.0000, -0.8173, 0.2073, 0.3130, 0.4372, -0.0999, 0.0124, 0.1477, 0.0000, 0.0000, 0.0000, 0.0000
2, 1.3100, 131, -0.4920, -0.5341, -0.6571, 2.1439, -2.9891, 11.2646, 0.0000, 0.0000, 0.0000, 0.0000, 0.0000, 0.0000, 0.8131, -0.1324, 0.3845, 0.4166, -0.0224, -0.0019, -0.0123, 0.0000, 0.0000, 0.0000, 0.0000
3, 1.3000, 130, -0.2885, -0.8054, -0.0700, -7.4289, 20.8198, -22.2183, 0.0000, 0.0000, 0.0000, 0.0000, 0.0000, 0.0000, -0.3196, 0.4334, 0.5267, 0.6577, 0.0536, -0.1642, 0.0013, 0.0000, 0.0000, 0.0000, 0.0000
1, 1.3000, 130, 0.4250, -0.6640, -0.9215, 56.3817, 19.0483, 41.9751, 0.0000, 0.0000, 0.0000, 0.0000, 0.0000, 0.0000, -0.8141, 0.2117, 0.3157, 0.4390, -0.0959, 0.0458, 0.2078, 0.0000, 0.0000, 0.0000, 0.0000
2, 1.3200, 132, -0.4975, -0.5267, -0.6552, 1.9340, -2.2059, 12.0258, 0.0000, 0.0000, 0.0000, 0.0000, 0.0000, 0.0000, 0.8134, -0.1321, 0.3849, 0.4157, -0.0183, -0.0085, -0.0138, 0.0000, 0.0000, 0.0000, 0.0000
3, 1.3100, 131, -0.2844, -0.8463, -0.0860, -2.6528, 23.6190, -21.3746, 0.0000, 0.0000, 0.0000, 0.0000, 0.0000, 0.0000, -0.3199, 0.4310, 0.5280, 0.6581, 0.0535, -0.1242, 0.0156, 0.0000, 0.0000, 0.0000, 0.0000
1, 1.3100, 131, 0.3872, -0.5768, -1.0639, 62.1583, 40.3062, 52.3951, 0.0000, 0.0000, 0.0000, 0.0000, 0.0000, 0.0000, -0.8098, 0.2160, 0.3200, 0.4417, -0.0597, -0.0516, 0.3584, 0.0000, 0.0000, 0.0000, 0.0000
2, 1.3300, 133, -0.5156, -0.5382, -0.6503, 1.6490, -1.2949, 13.1682, 0.0000, 0.0000, 0.0000, 0.0000, 0.0000, 0.0000, 0.8138, -0.1317, 0.3852, 0.4147, -0.0016, 0.0040, -0.0183, 0.0000, 0.0000, 0.0000, 0.0000
3, 1.3200, 132, -0.2756, -0.9086, -0.0746, 3.5579, 26.7308, -17.6735, 0.0000, 0.0000, 0.0000, 0.0000, 0.0000, 0.0000, -0.3195, 0.4288, 0.5296, 0.6584, 0.0483, -0.0626, 0.0035, 0.0000, 0.0000, 0.0000, 0.0000
1, 1.3200, 132, 0.4049, -0.5954, -1.2027, 87.7197, 15.5155, 51.2796, 0.0000, 0.0000, 0.0000, 0.0000, 0.0000, 0.0000, -0.8058, 0.2230, 0.3235, 0.4431, -0.0794, -0.0453, 0.5073, 0.0000, 0.0000, 0.0000, 0.0000
3, 1.3300, 133, -0.2687, -1.0106, -0.0799, 8.8019, 29.1398, -11.1466, 0.0000, 0.0000, 0.0000, 0.0000, 0.0000, 0.0000, -0.3185, 0.4268, 0.5313, 0.6588, 0.0440, 0.0388, 0.0088, 0.0000, 0.0000, 0.0000, 0.0000
3, 1.3400, 134, -0.2759, -1.1195, -0.0963, 11.3490, 31.2310, -3.6455, 0.0000, 0.0000, 0.0000, 0.0000, 0.0000, 0.0000, -0.3168, 0.4252, 0.5330, 0.6593, 0.0526, 0.1473, 0.0258, 0.0000, 0.0000, 0.0000, 0.0000
2, 1.3400, 134, -0.5434, -0.5284, -0.6572, 0.9398, -0.0178, 12.9528, 0.0000, 0.0000, 0.0000, 0.0000, 0.0000, 0.0000, 0.8143, -0.1313, 0.3854, 0.4138, 0.0250, -0.0048, -0.0113, 0.0000, 0.0000, 0.0000, 0.0000
1, 1.3300, 133, 0.5063, -0.6535, -1.0553, 109.1022, 22.1120, 63.1344, 0.0000, 0.0000, 0.0000, 0.0000, 0.0000, 0.0000, -0.8005, 0.2316, 0.3280, 0.4449, -0.1855, -0.0028, 0.3724, 0.0000, 0.0000, 0.0000, 0.0000
1, 1.3400, 134, 0.5799, -0.6336, -1.0591, 128.6766, 21.6279, 76.7951, 0.0000, 0.0000, 0.0000, 0.0000, 0.0000, 0.0000, -0.7942, 0.2419, 0.3330, 0.4470, -0.2645, -0.0408, 0.3916, 0.0000, 0.0000, 0.0000, 0.0000
2, 1.3500, 135, -0.5635, -0.5253, -0.6595, 1.1740, 0.2397, 12.1241, 0.0000, 0.0000, 0.0000, 0.0000, 0.0000, 0.0000, 0.8147, -0.1310, 0.3855, 0.4129, 0.0439, -0.0069, -0.0089, 0.0000, 0.0000, 0.0000, 0.0000
3, 1.3500, 135, -0.3006, -1.1776, -0.1215, 9.1430, 30.9637, 1.7514, 0.0000, 0.0000, 0.0000, 0.0000, 0.0000, 0.0000, -0.3149, 0.4237, 0.5343, 0.6601, 0.0777, 0.2052, 0.0515, 0.0000, 0.0000, 0.0000, 0.0000
1, 1.3500, 135, 0.7554, -0.6502, -1.1136, 147.1203, 15.4374, 95.9547, 0.0000, 0.0000, 0.0000, 0.0000, 0.0000, 0.0000, -0.7869, 0.2543, 0.3377, 0.4496, -0.4487, -0.0453, 0.4639, 0.0000, 0.0000, 0.0000, 0.0000
2, 1.3600, 136, -0.5540, -0.5176, -0.6688, 1.8937, 0.2468, 11.2075, 0.0000, 0.0000, 0.0000, 0.0000, 0.0000, 0.0000, 0.8151, -0.1308, 0.3857, 0.4120, 0.0334, -0.0137, 0.0005, 0.0000, 0.0000, 0.0000, 0.0000
3, 1.3600, 136, -0.3009, -1.1589, -0.1431, 2.7915, 32.1022, 2.4389, 0.0000, 0.0000, 0.0000, 0.0000, 0.0000, 0.0000, -0.3132, 0.4221, 0.5353, 0.6612, 0.0780, 0.1866, 0.0729, 0.0000, 0.0000, 0.0000, 0.0000
1, 1.3600, 136, 0.9611, -0.5613, -1.0749, 155.2793, -7.9553, 122.2574, 0.0000, 0.0000, 0.0000, 0.0000, 0.0000, 0.0000, -0.7787, 0.2688, 0.3405, 0.4532, -0.6678, -0.1570, 0.4441, 0.0000, 0.0000, 0.0000, 0.0000
2, 1.3700, 137, -0.5480, -0.5188, -0.6724, 2.2770, 0.3505, 9.6337, 0.0000, 0.0000, 0.0000, 0.0000, 0.0000, 0.0000, 0.8154, -0.1306, 0.3859, 0.4112, 0.0264, -0.0118, 0.0042, 0.0000, 0.0000, 0.0000, 0.0000
2, 1.3800, 138, -0.5355, -0.5286, -0.6800, 2.3610, -0.0648, 8.3452, 0.0000, 0.0000, 0.0000, 0.0000, 0.0000, 0.0000, 0.8157, -0.1305, 0.3861, 0.4106, 0.0131, -0.0015, 0.0121, 0.0000, 0.0000, 0.0000, 0.0000
3, 1.3700, 137, -0.2732, -1.1139, -0.2044, -2.7640, 36.4229, 1.7493, 0.0000, 0.0000, 0.0000, 0.0000, 0.0000, 0.0000, -0.3116, 0.4200, 0.5359, 0.6628, 0.0504, 0.1417, 0.1326, 0.0000, 0.0000, 0.0000, 0.0000
1, 1.3700, 137, 0.7123, -0.6903, -0.9673, 172.7310, -27.3612, 150.7430, 0.0000, 0.0000, 0.0000, 0.0000, 0.0000, 0.0000, -0.7694, 0.2861, 0.3419, 0.4576, -0.4393, -0.0528, 0.3565, 0.0000, 0.0000, 0.0000, 0.0000
3, 1.3800, 138, -0.2364, -1.0694, -0.2976, -7.3389, 38.9927, 2.0059, 0.0000, 0.0000, 0.0000, 0.0000, 0.0000, 0.0000, -0.3100, 0.4176, 0.5365, 0.6646, 0.0138, 0.0973, 0.2231, 0.0000, 0.0000, 0.0000, 0.0000
2, 1.3900, 139, -0.5165, -0.5157, -0.6802, 2.6779, -0.9535, 7.7796, 0.0000, 0.0000, 0.0000, 0.0000, 0.0000, 0.0000, 0.8159, -0.1304, 0.3863, 0.4099, -0.0066, -0.0140, 0.0126, 0.0000, 0.0000, 0.0000, 0.0000
1, 1.3800, 138, 0.5732, -0.8264, -0.7436, 198.2267, -21.9113, 164.8770, 0.0000, 0.0000, 0.0000, 0.0000, 0.0000, 0.0000, -0.7583, 0.3051, 0.3441, 0.4621, -0.3242, 0.0561, 0.1566, 0.0000, 0.0000, 0.0000, 0.0000
2, 1.4000, 140, -0.5285, -0.5230, -0.6742, 2.4530, -1.1777, 7.0213, 0.0000, 0.0000, 0.0000, 0.0000, 0.0000, 0.0000, 0.8161, -0.1303, 0.3866, 0.4094, 0.0045, -0.0063, 0.0068, 0.0000, 0.0000, 0.0000, 0.0000
3, 1.3900, 139, -0.1991, -1.0413, -0.3383, -13.7929, 39.0781, 3.2587, 0.0000, 0.0000, 0.0000, 0.0000, 0.0000, 0.0000, -0.3084, 0.4152, 0.5366, 0.6668, -0.0235, 0.0695, 0.2603, 0.0000, 0.0000, 0.0000, 0.0000
1, 1.3900, 139, 0.5041, -1.0479, -0.5446, 199.6833, -4.2207, 165.2538, 0.0000, 0.0000, 0.0000, 0.0000, 0.0000, 0.0000, -0.7463, 0.3233, 0.3474, 0.4668, -0.2790, 0.2506, -0.0154, 0.0000, 0.0000, 0.0000, 0.0000
2, 1.4100, 141, -0.5104, -0.5268, -0.6839, 2.7148, -1.9483, 6.4887, 0.0000, 0.0000, 0.0000, 0.0000, 0.0000, 0.0000, 0.8162, -0.1302, 0.3869, 0.4088, -0.0144, -0.0022, 0.0170, 0.0000, 0.0000, 0.0000, 0.0000
3, 1.4000, 140, -0.1433, -1.0224, -0.3697, -18.5036, 36.3340, 5.9259, 0.0000, 0.0000, 0.0000, 0.0000, 0.0000, 0.0000, -0.3071, 0.4128, 0.5363, 0.6691, -0.0796, 0.0511, 0.2874, 0.0000, 0.0000, 0.0000, 0.0000
1, 1.4000, 140, 0.6951, -1.4227, -0.6219, 177.6745, 25.6010, 149.8112, 0.0000, 0.0000, 0.0000, 0.0000, 0.0000, 0.0000, -0.7342, 0.3383, 0.3520, 0.4718, -0.4906, 0.6016, 0.0891, 0.0000, 0.0000, 0.0000, 0.0000
2, 1.4200, 142, -0.5135, -0.5182, -0.6859, 2.7953, -2.3405, 5.7235, 0.0000, 0.0000, 0.0000, 0.0000, 0.0000, 0.0000, 0.8163, -0.1301, 0.3872, 0.4084, -0.0121, -0.0105, 0.0194, 0.0000, 0.0000, 0.0000, 0.0000
3, 1.4100, 141, -0.1015, -1.0278, -0.3876, -20.1765, 31.8293, 8.7890, 0.0000, 0.0000, 0.0000, 0.0000, 0.0000, 0.0000, -0.3058, 0.4108, 0.5356, 0.6714, -0.1222, 0.0570, 0.3007, 0.0000, 0.0000, 0.0000, 0.0000
1, 1.4100, 141, 0.8478, -0.8918, -0.5673, 131.6969, 34.9182, 142.4141, 0.0000, 0.0000, 0.0000, 0.0000, 0.0000, 0.0000, -0.7233, 0.3497, 0.3554, 0.4778, -0.6615, 0.0522, 0.0572, 0.0000, 0.0000, 0.0000, 0.0000
3, 1.4200, 142, -0.0605, -1.0360, -0.4003, -20.7648, 27.6863, 11.1876, 0.0000, 0.0000, 0.0000, 0.0000, 0.0000, 0.0000, -0.3048, 0.4091, 0.5346, 0.6737, -0.1644, 0.0659, 0.3087, 0.0000, 0.0000, 0.0000, 0.0000
2, 1.4300, 143, -0.5329, -0.5175, -0.6827, 3.1125, -2.9628, 4.6349, 0.0000, 0.0000, 0.0000, 0.0000, 0.0000, 0.0000, 0.8164, -0.1300, 0.3876, 0.4080, 0.0065, -0.0110, 0.0167, 0.0000, 0.0000, 0.0000, 0.0000
1, 1.4200, 142, 0.9844, -0.2893, -0.5951, 95.9244, 36.7726, 119.8439, 0.0000, 0.0000, 0.0000, 0.0000, 0.0000, 0.0000, -0.7141, 0.3579, 0.3580, 0.4835, -0.8139, -0.5639, 0.1022, 0.0000, 0.0000, 0.0000, 0.0000
2, 1.4400, 144, -0.5423, -0.5196, -0.6749, 3.8237, -3.5069, 3.1940, 0.0000, 0.0000, 0.0000, 0.0000, 0.0000, 0.0000, 0.8163, -0.1300, 0.3880, 0.4077, 0.0151, -0.0089, 0.0095, 0.0000, 0.0000, 0.0000, 0.0000
1, 1.4300, 143, 1.1260, -0.3537, -0.6985, 54.2682, 22.2164, 86.3929, 0.0000, 0.0000, 0.0000, 0.0000, 0.0000, 0.0000, -0.7081, 0.3630, 0.3590, 0.4879, -0.9680, -0.5083, 0.2169, 0.0000, 0.0000, 0.0000, 0.0000
2, 1.4500, 145, -0.5522, -0.5132, -0.6586, 4.4208, -3.5980, 2.0462, 0.0000, 0.0000, 0.0000, 0.0000, 0.0000, 0.0000, 0.8162, -0.1302, 0.3884, 0.4074, 0.0244, -0.0156, -0.0060, 0.0000, 0.0000, 0.0000, 0.0000
1, 1.4400, 144, 1.0732, 0.0634, -0.6705, 26.9063, 13.6680, 46.6799, 0.0000, 0.0000, 0.0000, 0.0000, 0.0000, 0.0000, -0.7048, 0.3655, 0.3595, 0.4903, -0.9232, -0.9300, 0.1946, 0.0000, 0.0000, 0.0000, 0.0000
3, 1.4300, 143, -0.0336, -1.0495, -0.3844, -20.2670, 25.0334, 12.2930, 0.0000, 0.0000, 0.0000, 0.0000, 0.0000, 0.0000, -0.3037, 0.4076, 0.5336, 0.6759, -0.1927, 0.0802, 0.2879, 0.0000, 0.0000, 0.0000, 0.0000
2, 1.4600, 146, -0.5479, -0.5263, -0.6517, 4.2954, -2.7327, 0.5426, 0.0000, 0.0000, 0.0000, 0.0000, 0.0000, 0.0000, 0.8161, -0.1303, 0.3888, 0.4073, 0.0196, -0.0029, -0.0123, 0.0000, 0.0000, 0.0000, 0.0000
3, 1.4400, 144, -0.0345, -1.0366, -0.3206, -16.3387, 19.7388, 13.0449, 0.0000, 0.0000, 0.0000, 0.0000, 0.0000, 0.0000, -0.3026, 0.4067, 0.5327, 0.6777, -0.1936, 0.0681, 0.2202, 0.0000, 0.0000, 0.0000, 0.0000
1, 1.4500, 145, 0.8531, -0.2821, -0.5324, 16.6478, 18.1799, 20.2008, 0.0000, 0.0000, 0.0000, 0.0000, 0.0000, 0.0000, -0.7029, 0.3660, 0.3609, 0.4917, -0.7059, -0.5870, 0.0601, 0.0000, 0.0000, 0.0000, 0.0000
2, 1.4700, 147, -0.5412, -0.5339, -0.6572, 4.3785, -1.8859, -0.0117, 0.0000, 0.0000, 0.0000, 0.0000, 0.0000, 0.0000, 0.8160, -0.1306, 0.3891, 0.4071, 0.0126, 0.0042, -0.0062, 0.0000, 0.0000, 0.0000, 0.0000
1, 1.4600, 146, 0.8686, -0.0379, -0.7359, -11.7428, 29.7653, -8.4517, 0.0000, 0.0000, 0.0000, 0.0000, 0.0000, 0.0000, -0.7027, 0.3637, 0.3625, 0.4925, -0.7192, -0.8310, 0.2640, 0.0000, 0.0000, 0.0000, 0.0000
2, 1.4800, 148, -0.5267, -0.5310, -0.6621, 4.9312, -1.7251, -0.1838, 0.0000, 0.0000, 0.0000, 0.0000, 0.0000, 0.0000, 0.8159, -0.1309, 0.3894, 0.4070, -0.0021, 0.0007, -0.0007, 0.0000, 0.0000, 0.0000, 0.0000
3, 1.4500, 145, -0.0604, -1.0274, -0.2536, -12.6610, 13.7483, 14.8823, 0.0000, 0.0000, 0.0000, 0.0000, 0.0000, 0.0000, -0.3015, 0.4062, 0.5318, 0.6792, -0.1699, 0.0598, 0.1502, 0.0000, 0.0000, 0.0000, 0.0000
3, 1.4600, 146, -0.1007, -1.0161, -0.2389, -9.3913, 11.4643, 16.8828, 0.0000, 0.0000, 0.0000, 0.0000, 0.0000, 0.0000, -0.3003, 0.4061, 0.5310, 0.6805, -0.1320, 0.0493, 0.1333, 0.0000, 0.0000, 0.0000, 0.0000
1, 1.4700, 147, 0.8387, 0.1294, -0.7783, -35.0308, 37.6790, -28.1969, 0.0000, 0.0000, 0.0000, 0.0000, 0.0000, 0.0000, -0.7038, 0.3590, 0.3642, 0.4930, -0.6829, -0.9954, 0.3032, 0.0000, 0.0000, 0.0000, 0.0000
2, 1.4900, 149, -0.5183, -0.5232, -0.6648, 5.3776, -1.7924, -0.0809, 0.0000, 0.0000, 0.0000, 0.0000, 0.0000, 0.0000, 0.8157, -0.1312, 0.3897, 0.4068, -0.0106, -0.0077, 0.0027, 0.0000, 0.0000, 0.0000, 0.0000
1, 1.4800, 148, 0.6930, 0.1276, -0.7745, -49.8953, 40.7709, -28.7548, 0.0000, 0.0000, 0.0000, 0.0000, 0.0000, 0.0000, -0.7053, 0.3533, 0.3654, 0.4941, -0.5296, -0.9891, 0.2937, 0.0000, 0.0000, 0.0000, 0.0000
3, 1.4700, 147, -0.1587, -0.9834, -0.2498, -11.9923, 8.8679, 17.8034, 0.0000, 0.0000, 0.0000, 0.0000, 0.0000, 0.0000, -0.2995, 0.4060, 0.5297, 0.6818, -0.0768, 0.0175, 0.1418, 0.0000, 0.0000, 0.0000, 0.0000
2, 1.5000, 150, -0.5222, -0.5162, -0.6646, 6.3025, -1.3909, -0.2396, 0.0000, 0.0000, 0.0000, 0.0000, 0.0000, 0.0000, 0.8156, -0.1316, 0.3900, 0.4067, -0.0069, -0.0155, 0.0031, 0.0000, 0.0000, 0.0000, 0.0000
3, 1.4800, 148, -0.1975, -0.9042, -0.2714, -15.6612, 7.5895, 18.6533, 0.0000, 0.0000, 0.0000, 0.0000, 0.0000, 0.0000, -0.2986, 0.4060, 0.5283, 0.6833, -0.0408, -0.0606, 0.1605, 0.0000, 0.0000, 0.0000, 0.0000
3, 1.4900, 149, -0.2285, -0.8538, -0.2980, -16.1519, 6.6937, 20.3493, 0.0000, 0.0000, 0.0000, 0.0000, 0.0000, 0.0000, -0.2976, 0.4061, 0.5268, 0.6848, -0.0129, -0.1099, 0.1840, 0.0000, 0.0000, 0.0000, 0.0000
3, 1.5000, 150, -0.2320, -0.8319, -0.2973, -15.5452, 6.5170, 21.9802, 0.0000, 0.0000, 0.0000, 0.0000, 0.0000, 0.0000, -0.2965, 0.4063, 0.5252, 0.6863, -0.0129, -0.1306, 0.1804, 0.0000, 0.0000, 0.0000, 0.0000
1, 1.4900, 149, 0.5622, 0.1017, -0.8248, -66.1779, 50.2146, -31.3832, 0.0000, 0.0000, 0.0000, 0.0000, 0.0000, 0.0000, -0.7071, 0.3461, 0.3666, 0.4958, -0.3904, -0.9573, 0.3365, 0.0000, 0.0000, 0.0000, 0.0000
2, 1.5100, 151, -0.5231, -0.5152, -0.6664, 6.6583, -1.0030, -0.7498, 0.0000, 0.0000, 0.0000, 0.0000, 0.0000, 0.0000, 0.8155, -0.1321, 0.3903, 0.4065, -0.0060, -0.0173, 0.0057, 0.0000, 0.0000, 0.0000, 0.0000
1, 1.5000, 150, 0.4818, 0.0914, -0.8715, -82.1383, 63.8333, -38.5394, 0.0000, 0.0000, 0.0000, 0.0000, 0.0000, 0.0000, -0.7092, 0.3368, 0.3682, 0.4980, -0.2996, -0.9393, 0.3736, 0.0000, 0.0000, 0.0000, 0.0000
3, 1.5100, 151, -0.2175, -0.8374, -0.2965, -16.0281, 6.2551, 22.3271, 0.0000, 0.0000, 0.0000, 0.0000, 0.0000, 0.0000, -0.2955, 0.4066, 0.5237, 0.6879, -0.0310, -0.1238, 0.1766, 0.0000, 0.0000, 0.0000, 0.0000
3, 1.5200, 152, -0.2079, -0.8443, -0.2961, -16.3900, 5.7496, 21.6811, 0.0000, 0.0000, 0.0000, 0.0000, 0.0000, 0.0000, -0.2947, 0.4068, 0.5218, 0.6895, -0.0442, -0.1156, 0.1731, 0.0000, 0.0000, 0.0000, 0.0000
1, 1.5100, 151, 0.4817, 0.0700, -0.9140, -95.2613, 73.4602, -47.4315, 0.0000, 0.0000, 0.0000, 0.0000, 0.0000, 0.0000, -0.7116, 0.3262, 0.3699, 0.5003, -0.2868, -0.9084, 0.4050, 0.0000, 0.0000, 0.0000, 0.0000
2, 1.5200, 152, -0.5191, -0.5113, -0.6570, 7.2787, -0.3765, -1.1807, 0.0000, 0.0000, 0.0000, 0.0000, 0.0000, 0.0000, 0.8153, -0.1326, 0.3906, 0.4063, -0.0100, -0.0221, -0.0031, 0.0000, 0.0000, 0.0000, 0.0000
1, 1.5200, 152, 0.4978, 0.0316, -0.9333, -104.7545, 75.2702, -54.2709, 0.0000, 0.0000, 0.0000, 0.0000, 0.0000, 0.0000, -0.7145, 0.3146, 0.3716, 0.5024, -0.2886, -0.8590, 0.4121, 0.0000, 0.0000, 0.0000, 0.0000
3, 1.5300, 153, -0.2048, -0.8553, -0.2928, -15.8039, 5.8369, 20.3757, 0.0000, 0.0000, 0.0000, 0.0000, 0.0000, 0.0000, -0.2938, 0.4070, 0.5203, 0.6909, -0.0505, -0.1032, 0.1665, 0.0000, 0.0000, 0.0000, 0.0000
2, 1.5300, 153, -0.5170, -0.5114, -0.6515, 7.7404, 0.0961, -1.6348, 0.0000, 0.0000, 0.0000, 0.0000, 0.0000, 0.0000, 0.8152, -0.1332, 0.3908, 0.4062, -0.0120, -0.0230, -0.0078, 0.0000, 0.0000, 0.0000, 0.0000
3, 1.5400, 154, -0.1999, -0.8587, -0.3005, -16.6691, 6.4903, 18.5297, 0.0000, 0.0000, 0.0000, 0.0000, 0.0000, 0.0000, -0.2930, 0.4070, 0.5188, 0.6924, -0.0585, -0.0986, 0.1712, 0.0000, 0.0000, 0.0000, 0.0000
1, 1.5300, 153, 0.5022, -0.0178, -0.9357, -110.4865, 69.9959, -58.8346, 0.0000, 0.0000, 0.0000, 0.0000, 0.0000, 0.0000, -0.7178, 0.3028, 0.3727, 0.5042, -0.2781, -0.7974, 0.4017, 0.0000, 0.0000, 0.0000, 0.0000
2, 1.5400, 154, -0.5114, -0.5270, -0.6430, 7.8881, 1.4859, -2.0639, 0.0000, 0.0000, 0.0000, 0.0000, 0.0000, 0.0000, 0.8151, -0.1339, 0.3909, 0.4061, -0.0173, -0.0084, -0.0157, 0.0000, 0.0000, 0.0000, 0.0000
1, 1.5400, 154, 0.5016, -0.0745, -0.9186, -112.9611, 61.6681, -62.9575, 0.0000, 0.0000, 0.0000, 0.0000, 0.0000, 0.0000, -0.7215, 0.2909, 0.3732, 0.5055, -0.2627, -0.7276, 0.3713, 0.0000, 0.0000, 0.0000, 0.0000
3, 1.5500, 155, -0.1975, -0.8552, -0.3037, -17.3431, 6.8962, 16.7744, 0.0000, 0.0000, 0.0000, 0.0000, 0.0000, 0.0000, -0.2923, 0.4069, 0.5173, 0.6938, -0.0637, -0.1009, 0.1712, 0.0000, 0.0000, 0.0000, 0.0000
3, 1.5600, 156, -0.1950, -0.8618, -0.3050, -17.3702, 7.8943, 15.5098, 0.0000, 0.0000, 0.0000, 0.0000, 0.0000, 0.0000, -0.2916, 0.4067, 0.5159, 0.6953, -0.0687, -0.0932, 0.1694, 0.0000, 0.0000, 0.0000, 0.0000
2, 1.5500, 155, -0.5231, -0.5156, -0.6368, 8.4229, 3.1240, -2.0255, 0.0000, 0.0000, 0.0000, 0.0000, 0.0000, 0.0000, 0.8150, -0.1347, 0.3910, 0.4059, -0.0051, -0.0209, -0.0213, 0.0000, 0.0000, 0.0000, 0.0000
1, 1.5500, 155, 0.5099, -0.1409, -0.8941, -111.8696, 52.4606, -67.4900, 0.0000, 0.0000, 0.0000, 0.0000, 0.0000, 0.0000, -0.7255, 0.2792, 0.3732, 0.5063, -0.2565, -0.6475, 0.3336, 0.0000, 0.0000, 0.0000, 0.0000
2, 1.5600, 156, -0.5403, -0.5254, -0.6445, 8.6385, 4.9622, -2.6959, 0.0000, 0.0000, 0.0000, 0.0000, 0.0000, 0.0000, 0.8150, -0.1356, 0.3909, 0.4057, 0.0128, -0.0123, -0.0132, 0.0000, 0.0000, 0.0000, 0.0000
1, 1.5600, 156, 0.5115, -0.2269, -0.8789, -108.3856, 44.9755, -73.2095, 0.0000, 0.0000, 0.0000, 0.0000, 0.0000, 0.0000, -0.7299, 0.2680, 0.3731, 0.5062, -0.2436, -0.5473, 0.3055, 0.0000, 0.0000, 0.0000, 0.0000
3, 1.5700, 157, -0.1991, -0.8682, -0.3091, -16.9619, 7.6531, 14.2050, 0.0000, 0.0000, 0.0000, 0.0000, 0.0000, 0.0000, -0.2913, 0.4064, 0.5144, 0.6968, -0.0668, -0.0857, 0.1701, 0.0000, 0.0000, 0.0000, 0.0000
2, 1.5700, 157, -0.5312, -0.5212, -0.6459, 7.8273, 5.4957, -2.4099, 0.0000, 0.0000, 0.0000, 0.0000, 0.0000, 0.0000, 0.8150, -0.1364, 0.3908, 0.4056, 0.0046, -0.0177, -0.0116, 0.0000, 0.0000, 0.0000, 0.0000
3, 1.5800, 158, -0.1889, -0.8677, -0.3013, -16.3698, 8.0932, 12.6353, 0.0000, 0.0000, 0.0000, 0.0000, 0.0000, 0.0000, -0.2907, 0.4060, 0.5131, 0.6981, -0.0790, -0.0852, 0.1588, 0.0000, 0.0000, 0.0000, 0.0000
1, 1.5700, 157, 0.5185, -0.3262, -0.8617, -104.2769, 39.5011, -80.9497, 0.0000, 0.0000, 0.0000, 0.0000, 0.0000, 0.0000, -0.7346, 0.2569, 0.3728, 0.5053, -0.2360, -0.4336, 0.2762, 0.0000, 0.0000, 0.0000, 0.0000
2, 1.5800, 158, -0.5213, -0.5553, -0.6444, 7.4231, 6.5681, -2.5100, 0.0000, 0.0000, 0.0000, 0.0000, 0.0000, 0.0000, 0.8150, -0.1372, 0.3906, 0.4054, -0.0044, 0.0153, -0.0128, 0.0000, 0.0000, 0.0000, 0.0000
2, 1.5900, 159, -0.5243, -0.5432, -0.6586, 6.0918, 7.6914, -2.9046, 0.0000, 0.0000, 0.0000, 0.0000, 0.0000, 0.0000, 0.8151, -0.1380, 0.3902, 0.4053, -0.0004, 0.0022, 0.0013, 0.0000, 0.0000, 0.0000, 0.0000
2, 1.6000, 160, -0.5079, -0.5410, -0.6582, 5.3748, 7.9240, -2.8599, 0.0000, 0.0000, 0.0000, 0.0000, 0.0000, 0.0000, 0.8152, -0.1388, 0.3898, 0.4052, -0.0156, -0.0009, 0.0007, 0.0000, 0.0000, 0.0000, 0.0000
1, 1.5800, 158, 0.5396, -0.4230, -0.8561, -100.1602, 35.9179, -89.2234, 0.0000, 0.0000, 0.0000, 0.0000, 0.0000, 0.0000, -0.7395, 0.2460, 0.3727, 0.5037, -0.2420, -0.3219, 0.2590, 0.0000, 0.0000, 0.0000, 0.0000
3, 1.5900, 159, -0.1673, -0.8590, -0.3044, -16.0902, 8.3518, 10.7322, 0.0000, 0.0000, 0.0000, 0.0000, 0.0000, 0.0000, -0.2903, 0.4056, 0.5120, 0.6994, -0.1023, -0.0929, 0.1588, 0.0000, 0.0000, 0.0000, 0.0000
2, 1.6100, 161, -0.5151, -0.5338, -0.6545, 4.6955, 8.1638, -3.1452, 0.0000, 0.0000, 0.0000, 0.0000, 0.0000, 0.0000, 0.8153, -0.1395, 0.3893, 0.4052, -0.0071, -0.0090, -0.0033, 0.0000, 0.0000, 0.0000, 0.0000
1, 1.5900, 159, 0.5296, -0.5444, -0.8487, -97.0465, 36.4124, -97.5318, 0.0000, 0.0000, 0.0000, 0.0000, 0.0000, 0.0000, -0.7447, 0.2349, 0.3728, 0.5013, -0.2161, -0.1852, 0.2410, 0.0000, 0.0000, 0.0000, 0.0000
2, 1.6200, 162, -0.5380, -0.5096, -0.6484, 4.7319, 8.5033, -3.8937, 0.0000, 0.0000, 0.0000, 0.0000, 0.0000, 0.0000, 0.8154, -0.1403, 0.3889, 0.4052, 0.0170, -0.0340, -0.0097, 0.0000, 0.0000, 0.0000, 0.0000
3, 1.6000, 160, -0.1556, -0.8252, -0.3043, -16.5611, 6.7910, 8.9222, 0.0000, 0.0000, 0.0000, 0.0000, 0.0000, 0.0000, -0.2900, 0.4051, 0.5108, 0.7006, -0.1154, -0.1259, 0.1556, 0.0000, 0.0000, 0.0000, 0.0000
1, 1.6000, 160, 0.5259, -0.6585, -0.8428, -96.2774, 38.6590, -106.6092, 0.0000, 0.0000, 0.0000, 0.0000, 0.0000, 0.0000, -0.7500, 0.2235, 0.3733, 0.4982, -0.1953, -0.0549, 0.2251, 0.0000, 0.0000, 0.0000, 0.0000
3, 1.6100, 161, -0.1339, -0.7817, -0.3103, -14.7703, 5.3663, 6.8168, 0.0000, 0.0000, 0.0000, 0.0000, 0.0000, 0.0000, -0.2899, 0.4048, 0.5098, 0.7016, -0.1382, -0.1686, 0.1587, 0.0000, 0.0000, 0.0000, 0.0000
2, 1.6300, 163, -0.5397, -0.5229, -0.6541, 4.8454, 8.9519, -5.7557, 0.0000, 0.0000, 0.0000, 0.0000, 0.0000, 0.0000, 0.8155, -0.1411, 0.3883, 0.4053, 0.0202, -0.0217, -0.0044, 0.0000, 0.0000, 0.0000, 0.0000
1, 1.6100, 161, 0.5375, -0.7143, -0.8491, -95.9172, 41.1201, -115.4943, 0.0000, 0.0000, 0.0000, 0.0000, 0.0000, 0.0000, -0.7555, 0.2116, 0.3740, 0.4945, -0.1887, 0.0179, 0.2219, 0.0000, 0.0000, 0.0000, 0.0000
3, 1.6200, 162, -0.1166, -0.7749, -0.3174, -10.1009, 1.9722, 5.9379, 0.0000, 0.0000, 0.0000, 0.0000, 0.0000, 0.0000, -0.2903, 0.4045, 0.5087, 0.7024, -0.1563, -0.1747, 0.1635, 0.0000, 0.0000, 0.0000, 0.0000
2, 1.6400, 164, -0.5297, -0.5195, -0.6507, 4.9940, 9.2749, -7.3026, 0.0000, 0.0000, 0.0000, 0.0000, 0.0000, 0.0000, 0.8155, -0.1421, 0.3878, 0.4056, 0.0119, -0.0262, -0.0081, 0.0000, 0.0000, 0.0000, 0.0000
1, 1.6200, 162, 0.5508, -0.7658, -0.8457, -94.4409, 40.4700, -122.9180, 0.0000, 0.0000, 0.0000, 0.0000, 0.0000, 0.0000, -0.7611, 0.1996, 0.3749, 0.4902, -0.1831, 0.0875, 0.2097, 0.0000, 0.0000, 0.0000, 0.0000
3, 1.6300, 163, -0.1167, -0.7814, -0.3122, -5.7195, -1.1139, 5.5084, 0.0000, 0.0000, 0.0000, 0.0000, 0.0000, 0.0000, -0.2902, 0.4046, 0.5082, 0.7027, -0.1567, -0.1678, 0.1564, 0.0000, 0.0000, 0.0000, 0.0000
2, 1.6500, 165, -0.5460, -0.5149, -0.6488, 5.8896, 10.0356, -9.1715, 0.0000, 0.0000, 0.0000, 0.0000, 0.0000, 0.0000, 0.8154, -0.1431, 0.3871, 0.4059, 0.0300, -0.0322, -0.0104, 0.0000, 0.0000, 0.0000, 0.0000
1, 1.6300, 163, 0.5620, -0.8377, -0.8324, -90.4622, 32.3619, -127.0644, 0.0000, 0.0000, 0.0000, 0.0000, 0.0000, 0.0000, -0.7670, 0.1881, 0.3753, 0.4853, -0.1756, 0.1780, 0.1879, 0.0000, 0.0000, 0.0000, 0.0000
3, 1.6400, 164, -0.1287, -0.8014, -0.3061, -2.1628, -3.2868, 5.1178, 0.0000, 0.0000, 0.0000, 0.0000, 0.0000, 0.0000, -0.2901, 0.4050, 0.5078, 0.7028, -0.1457, -0.1474, 0.1499, 0.0000, 0.0000, 0.0000, 0.0000
2, 1.6600, 166, -0.5349, -0.5282, -0.6682, 6.9880, 10.3602, -11.2954, 0.0000, 0.0000, 0.0000, 0.0000, 0.0000, 0.0000, 0.8153, -0.1444, 0.3865, 0.4063, 0.0211, -0.0206, 0.0088, 0.0000, 0.0000, 0.0000, 0.0000
1, 1.6400, 164, 0.5629, -0.9033, -0.8191, -86.3329, 20.0539, -127.8371, 0.0000, 0.0000, 0.0000, 0.0000, 0.0000, 0.0000, -0.7731, 0.1772, 0.3751, 0.4798, -0.1592, 0.2624, 0.1664, 0.0000, 0.0000, 0.0000, 0.0000
1, 1.6500, 165, 0.5398, -0.9510, -0.8157, -82.2808, 5.2763, -126.4490, 0.0000, 0.0000, 0.0000, 0.0000, 0.0000, 0.0000, -0.7794, 0.1673, 0.3739, 0.4740, -0.1208, 0.3288, 0.1545, 0.0000, 0.0000, 0.0000, 0.0000
2, 1.6700, 167, -0.5068, -0.5402, -0.6762, 8.2126, 10.2651, -12.8572, 0.0000, 0.0000, 0.0000, 0.0000, 0.0000, 0.0000, 0.8151, -0.1458, 0.3859, 0.4068, -0.0046, -0.0107, 0.0165, 0.0000, 0.0000, 0.0000, 0.0000
3, 1.6500, 165, -0.1539, -0.8228, -0.3110, 0.3885, -5.2586, 4.8218, 0.0000, 0.0000, 0.0000, 0.0000, 0.0000, 0.0000, -0.2900, 0.4055, 0.5075, 0.7028, -0.1214, -0.1258, 0.1549, 0.0000, 0.0000, 0.0000, 0.0000
1, 1.6600, 166, 0.4944, -0.9919, -0.8026, -76.2604, -9.3178, -123.7415, 0.0000, 0.0000, 0.0000, 0.0000, 0.0000, 0.0000, -0.7859, 0.1585, 0.3719, 0.4679, -0.0625, 0.3880, 0.1327, 0.0000, 0.0000, 0.0000, 0.0000
3, 1.6600, 166, -0.1885, -0.8487, -0.3125, 2.2255, -6.0191, 4.3716, 0.0000, 0.0000, 0.0000, 0.0000, 0.0000, 0.0000, -0.2899, 0.4062, 0.5073, 0.7026, -0.0877, -0.0997, 0.1569, 0.0000, 0.0000, 0.0000, 0.0000
3, 1.6700, 167, -0.2132, -0.8719, -0.3335, 3.0716, -7.6550, 3.9011, 0.0000, 0.0000, 0.0000, 0.0000, 0.0000, 0.0000, -0.2907, 0.4068, 0.5065, 0.7025, -0.0637, -0.0764, 0.1784, 0.0000, 0.0000, 0.0000, 0.0000
2, 1.6800, 168, -0.5027, -0.5327, -0.6919, 9.8714, 9.4141, -13.9684, 0.0000, 0.0000, 0.0000, 0.0000, 0.0000, 0.0000, 0.8148, -0.1472, 0.3854, 0.4074, -0.0062, -0.0203, 0.0323, 0.0000, 0.0000, 0.0000, 0.0000
1, 1.6700, 167, 0.3908, -1.0150, -0.7756, -69.2341, -17.5128, -121.5763, 0.0000, 0.0000, 0.0000, 0.0000, 0.0000, 0.0000, -0.7923, 0.1505, 0.3695, 0.4615, 0.0520, 0.4289, 0.0971, 0.0000, 0.0000, 0.0000, 0.0000
3, 1.6800, 168, -0.2168, -0.8958, -0.3530, 1.8137, -9.6028, 3.7288, 0.0000, 0.0000, 0.0000, 0.0000, 0.0000, 0.0000, -0.2908, 0.4076, 0.5063, 0.7021, -0.0608, -0.0523, 0.1976, 0.0000, 0.0000, 0.0000, 0.0000
2, 1.6900, 169, -0.4761, -0.5690, -0.7076, 12.0924, 7.7478, -15.0085, 0.0000, 0.0000, 0.0000, 0.0000, 0.0000, 0.0000, 0.8143, -0.1489, 0.3851, 0.4080, -0.0304, 0.0134, 0.0483, 0.0000, 0.0000, 0.0000, 0.0000
1, 1.6800, 168, 0.3168, -1.0586, -0.7456, -63.8668, -19.3833, -119.2279, 0.0000, 0.0000, 0.0000, 0.0000, 0.0000, 0.0000, -0.7985, 0.1430, 0.3671, 0.4551, 0.1359, 0.4898, 0.0589, 0.0000, 0.0000, 0.0000, 0.0000
2, 1.7000, 170, -0.5109, -0.5483, -0.6918, 15.2631, 5.6401, -15.8062, 0.0000, 0.0000, 0.0000, 0.0000, 0.0000, 0.0000, 0.8138, -0.1507, 0.3850, 0.4085, 0.0067, -0.0103, 0.0332, 0.0000, 0.0000, 0.0000, 0.0000
2, 1.7100, 171, -0.5168, -0.5515, -0.6907, 17.7954, 3.5257, -17.3068, 0.0000, 0.0000, 0.0000, 0.0000, 0.0000, 0.0000, 0.8130, -0.1527, 0.3852, 0.4091, 0.0146, -0.0105, 0.0335, 0.0000, 0.0000, 0.0000, 0.0000
3, 1.6900, 169, -0.2127, -0.9096, -0.3671, -0.7108, -9.8379, 3.9004, 0.0000, 0.0000, 0.0000, 0.0000, 0.0000, 0.0000, -0.2910, 0.4084, 0.5058, 0.7019, -0.0658, -0.0383, 0.2123, 0.0000, 0.0000, 0.0000, 0.0000
1, 1.6900, 169, 0.2136, -1.0804, -0.7071, -58.4352, -14.9203, -115.3401, 0.0000, 0.0000, 0.0000, 0.0000, 0.0000, 0.0000, -0.8043, 0.1358, 0.3652, 0.4487, 0.2485, 0.5281, 0.0132, 0.0000, 0.0000, 0.0000, 0.0000
2, 1.7200, 172, -0.5280, -0.5552, -0.7001, 21.2607, 2.5753, -18.7730, 0.0000, 0.0000, 0.0000, 0.0000, 0.0000, 0.0000, 0.8122, -0.1549, 0.3855, 0.4097, 0.0279, -0.0106, 0.0445, 0.0000, 0.0000, 0.0000, 0.0000
3, 1.7000, 170, -0.2051, -0.9221, -0.3738, -2.8148, -10.2709, 4.1643, 0.0000, 0.0000, 0.0000, 0.0000, 0.0000, 0.0000, -0.2913, 0.4091, 0.5053, 0.7018, -0.0744, -0.0255, 0.2191, 0.0000, 0.0000, 0.0000, 0.0000
1, 1.7000, 170, 0.1595, -1.1125, -0.6484, -54.2603, -8.0281, -108.5090, 0.0000, 0.0000, 0.0000, 0.0000, 0.0000, 0.0000, -0.8094, 0.1289, 0.3638, 0.4427, 0.3118, 0.5761, -0.0516, 0.0000, 0.0000, 0.0000, 0.0000
3, 1.7100, 171, -0.1914, -0.9399, -0.3728, -4.1805, -11.6316, 4.2839, 0.0000, 0.0000, 0.0000, 0.0000, 0.0000, 0.0000, -0.2917, 0.4099, 0.5046, 0.7017, -0.0890, -0.0074, 0.2181, 0.0000, 0.0000, 0.0000, 0.0000
3, 1.7200, 172, -0.1766, -0.9502, -0.3646, -5.9045, -12.9575, 3.7015, 0.0000, 0.0000, 0.0000, 0.0000, 0.0000, 0.0000, -0.2928, 0.4105, 0.5034, 0.7017, -0.1048, 0.0032, 0.2093, 0.0000, 0.0000, 0.0000, 0.0000
3, 1.7300, 173, -0.1657, -0.9622, -0.3554, -7.3734, -14.5711, 2.5294, 0.0000, 0.0000, 0.0000, 0.0000, 0.0000, 0.0000, -0.2935, 0.4113, 0.5025, 0.7015, -0.1161, 0.0155, 0.1990, 0.0000, 0.0000, 0.0000, 0.0000
3, 1.7400, 174, -0.1703, -0.9626, -0.3403, -9.9315, -17.2580, 0.8311, 0.0000, 0.0000, 0.0000, 0.0000, 0.0000, 0.0000, -0.2946, 0.4122, 0.5014, 0.7014, -0.1123, 0.0163, 0.1832, 0.0000, 0.0000, 0.0000, 0.0000
2, 1.7300, 173, -0.5145, -0.5673, -0.7023, 24.6380, 1.5051, -20.2424, 0.0000, 0.0000, 0.0000, 0.0000, 0.0000, 0.0000, 0.8111, -0.1574, 0.3860, 0.4103, 0.0167, -0.0030, 0.0489, 0.0000, 0.0000, 0.0000, 0.0000
2, 1.7400, 174, -0.5005, -0.5865, -0.6936, 26.3116, -0.4979, -21.6511, 0.0000, 0.0000, 0.0000, 0.0000, 0.0000, 0.0000, 0.8100, -0.1599, 0.3866, 0.4109, 0.0048, 0.0115, 0.0427, 0.0000, 0.0000, 0.0000, 0.0000
2, 1.7500, 175, -0.5020, -0.5922, -0.6832, 28.2042, -1.8728, -22.0744, 0.0000, 0.0000, 0.0000, 0.0000, 0.0000, 0.0000, 0.8087, -0.1626, 0.3875, 0.4115, 0.0083, 0.0122, 0.0352, 0.0000, 0.0000, 0.0000, 0.0000
1, 1.7100, 171, 0.1270, -1.1437, -0.5867, -52.7487, 0.4055, -96.8391, 0.0000, 0.0000, 0.0000, 0.0000, 0.0000, 0.0000, -0.8137, 0.1221, 0.3628, 0.4375, 0.3533, 0.6221, -0.1185, 0.0000, 0.0000, 0.0000, 0.0000
1, 1.7200, 172, 0.0669, -1.1613, -0.5381, -52.6575, 9.2406, -81.7960, 0.0000, 0.0000, 0.0000, 0.0000, 0.0000, 0.0000, -0.8170, 0.1154, 0.3623, 0.4334, 0.4220, 0.6537, -0.1713, 0.0000, 0.0000, 0.0000, 0.0000
1, 1.7300, 173, 0.0095, -1.2101, -0.4754, -53.2885, 17.4780, -66.2758, 0.0000, 0.0000, 0.0000, 0.0000, 0.0000, 0.0000, -0.8195, 0.1089, 0.3622, 0.4305, 0.4875, 0.7152, -0.2374, 0.0000, 0.0000, 0.0000, 0.0000
1, 1.7400, 174, -0.0388, -1.2625, -0.4045, -55.3052, 25.1600, -51.9879, 0.0000, 0.0000, 0.0000, 0.0000, 0.0000, 0.0000, -0.8212, 0.1023, 0.3624, 0.4288, 0.5435, 0.7794, -0.3110, 0.0000, 0.0000, 0.0000, 0.0000
3, 1.7500, 175, -0.1730, -0.9572, -0.3349, -13.4692, -21.2946, -0.6395, 0.0000, 0.0000, 0.0000, 0.0000, 0.0000, 0.0000, -0.2960, 0.4131, 0.5001, 0.7012, -0.1100, 0.0112, 0.1768, 0.0000, 0.0000, 0.0000, 0.0000
2, 1.7600, 176, -0.4900, -0.5853, -0.7001, 31.2945, -3.2688, -22.7171, 0.0000, 0.0000, 0.0000, 0.0000, 0.0000, 0.0000, 0.8074, -0.1655, 0.3885, 0.4121, -0.0016, -0.0000, 0.0554, 0.0000, 0.0000, 0.0000, 0.0000
1, 1.7500, 175, -0.0751, -1.2702, -0.3357, -56.0795, 29.9424, -39.2612, 0.0000, 0.0000, 0.0000, 0.0000, 0.0000, 0.0000, -0.8222, 0.0961, 0.3628, 0.4280, 0.5870, 0.7979, -0.3819, 0.0000, 0.0000, 0.0000, 0.0000
3, 1.7600, 176, -0.1780, -0.9324, -0.3302, -16.9349, -25.4886, -1.1826, 0.0000, 0.0000, 0.0000, 0.0000, 0.0000, 0.0000, -0.2978, 0.4142, 0.4984, 0.7010, -0.1055, -0.0132, 0.1707, 0.0000, 0.0000, 0.0000, 0.0000
1, 1.7600, 176, -0.1065, -1.2502, -0.2581, -53.7140, 31.4432, -27.6814, 0.0000, 0.0000, 0.0000, 0.0000, 0.0000, 0.0000, -0.8226, 0.0902, 0.3633, 0.4280, 0.6247, 0.7875, -0.4611, 0.0000, 0.0000, 0.0000, 0.0000
2, 1.7700, 177, -0.5046, -0.5859, -0.6749, 35.2477, -2.1786, -23.0469, 0.0000, 0.0000, 0.0000, 0.0000, 0.0000, 0.0000, 0.8059, -0.1686, 0.3896, 0.4126, 0.0151, -0.0053, 0.0338, 0.0000, 0.0000, 0.0000, 0.0000
1, 1.7700, 177, -0.1216, -1.2445, -0.1975, -48.3759, 29.5096, -16.4787, 0.0000, 0.0000, 0.0000, 0.0000, 0.0000, 0.0000, -0.8227, 0.0851, 0.3637, 0.4285, 0.6453, 0.7901, -0.5230, 0.0000, 0.0000, 0.0000, 0.0000
3, 1.7700, 177, -0.1833, -0.9242, -0.3367, -17.3672, -30.0639, -0.8757, 0.0000, 0.0000, 0.0000, 0.0000, 0.0000, 0.0000, -0.3000, 0.4154, 0.4965, 0.7007, -0.1008, -0.0210, 0.1756, 0.0000, 0.0000, 0.0000, 0.0000
2, 1.7800, 178, -0.5311, -0.6052, -0.6770, 36.1360, -5.3449, -25.2874, 0.0000, 0.0000, 0.0000, 0.0000, 0.0000, 0.0000, 0.8043, -0.1718, 0.3909, 0.4132, 0.0435, 0.0080, 0.0400, 0.0000, 0.0000, 0.0000, 0.0000
1, 1.7800, 178, -0.0117, -1.2824, -0.2278, -40.7195, 25.2648, -4.8008, 0.0000, 0.0000, 0.0000, 0.0000, 0.0000, 0.0000, -0.8224, 0.0811, 0.3641, 0.4297, 0.5396, 0.8343, -0.4937, 0.0000, 0.0000, 0.0000, 0.0000
2, 1.7900, 179, -0.5488, -0.5931, -0.7032, 36.8795, -7.8640, -28.3869, 0.0000, 0.0000, 0.0000, 0.0000, 0.0000, 0.0000, 0.8025, -0.1751, 0.3923, 0.4141, 0.0633, -0.0103, 0.0706, 0.0000, 0.0000, 0.0000, 0.0000
3, 1.7800, 178, -0.1808, -0.9345, -0.3554, -16.1520, -34.9800, -0.0978, 0.0000, 0.0000, 0.0000, 0.0000, 0.0000, 0.0000, -0.3021, 0.4171, 0.4946, 0.7001, -0.1040, -0.0102, 0.1929, 0.0000, 0.0000, 0.0000, 0.0000
1, 1.7900, 179, -0.0611, -1.5232, 0.0356, -16.7390, -11.0239, 32.0079, 0.0000, 0.0000, 0.0000, 0.0000, 0.0000, 0.0000, -0.8216, 0.0813, 0.3624, 0.4324, 0.5882, 1.0770, -0.7588, 0.0000, 0.0000, 0.0000, 0.0000
2, 1.8000, 180, -0.6172, -0.5497, -0.7547, 40.4348, -10.0480, -33.5498, 0.0000, 0.0000, 0.0000, 0.0000, 0.0000, 0.0000, 0.8003, -0.1787, 0.3940, 0.4152, 0.1339, -0.0607, 0.1271, 0.0000, 0.0000, 0.0000, 0.0000
3, 1.7900, 179, -0.1784, -0.9589, -0.3872, -13.3862, -39.2371, -0.1666, 0.0000, 0.0000, 0.0000, 0.0000, 0.0000, 0.0000, -0.3043, 0.4192, 0.4927, 0.6992, -0.1074, 0.0146, 0.2242, 0.0000, 0.0000, 0.0000, 0.0000
1, 1.8000, 180, -0.0929, -1.2935, 0.2087, 0.1778, -50.2154, 70.2353, 0.0000, 0.0000, 0.0000, 0.0000, 0.0000, 0.0000, -0.8205, 0.0856, 0.3583, 0.4371, 0.6112, 0.8430, -0.9356, 0.0000, 0.0000, 0.0000, 0.0000
1, 1.8100, 181, -0.3624, -1.5600, 0.2056, 26.9823, -75.1496, 104.0428, 0.0000, 0.0000, 0.0000, 0.0000, 0.0000, 0.0000, -0.8186, 0.0936, 0.3532, 0.4431, 0.8648, 1.0989, -0.9370, 0.0000, 0.0000, 0.0000, 0.0000
1, 1.8200, 182, -0.3270, -1.7208, 0.2720, 55.6646, -96.8090, 120.1019, 0.0000, 0.0000, 0.0000, 0.0000, 0.0000, 0.0000, -0.8164, 0.1050, 0.3474, 0.4491, 0.8087, 1.2441, -1.0073, 0.0000, 0.0000, 0.0000, 0.0000
3, 1.8000, 180, -0.1791, -0.9864, -0.4227, -10.3683, -42.7274, -1.3913, 0.0000, 0.0000, 0.0000, 0.0000, 0.0000, 0.0000, -0.3066, 0.4214, 0.4910, 0.6981, -0.1078, 0.0424, 0.2598, 0.0000, 0.0000, 0.0000, 0.0000
2, 1.8100, 181, -0.5517, -0.5843, -0.7675, 51.7575, -3.7379, -39.9450, 0.0000, 0.0000, 0.0000, 0.0000, 0.0000, 0.0000, 0.7979, -0.1836, 0.3955, 0.4162, 0.0719, -0.0345, 0.1454, 0.0000, 0.0000, 0.0000, 0.0000
2, 1.8200, 182, -0.5009, -0.5980, -0.7805, 56.6009, -7.2671, -43.0753, 0.0000, 0.0000, 0.0000, 0.0000, 0.0000, 0.0000, 0.7952, -0.1887, 0.3974, 0.4174, 0.0251, -0.0301, 0.1649, 0.0000, 0.0000, 0.0000, 0.0000
2, 1.8300, 183, -0.5046, -0.6034, -0.7753, 61.4613, -11.5608, -44.6708, 0.0000, 0.0000, 0.0000, 0.0000, 0.0000, 0.0000, 0.7921, -0.1941, 0.3996, 0.4186, 0.0326, -0.0348, 0.1671, 0.0000, 0.0000, 0.0000, 0.0000
1, 1.8300, 183, -0.6417, -0.3890, -0.1970, 88.0304, -121.6466, 117.8629, 0.0000, 0.0000, 0.0000, 0.0000, 0.0000, 0.0000, -0.8146, 0.1196, 0.3411, 0.4537, 1.0985, -0.1073, -0.5411, 0.0000, 0.0000, 0.0000, 0.0000
3, 1.8100, 181, -0.1811, -1.0366, -0.4363, -7.1693, -44.6720, -3.5332, 0.0000, 0.0000, 0.0000, 0.0000, 0.0000, 0.0000, -0.3090, 0.4238, 0.4895, 0.6966, -0.1066, 0.0926, 0.2743, 0.0000, 0.0000, 0.0000, 0.0000
1, 1.8400, 184, 0.4962, -1.2458, -1.1642, 123.3316, -132.5246, 83.9868, 0.0000, 0.0000, 0.0000, 0.0000, 0.0000, 0.0000, -0.8138, 0.1361, 0.3356, 0.4545, -0.0646, 0.7276, 0.4258, 0.0000, 0.0000, 0.0000, 0.0000
1, 1.8500, 185, 0.4273, -1.0142, -1.7366, 104.9406, -94.1305, 83.0875, 0.0000, 0.0000, 0.0000, 0.0000, 0.0000, 0.0000, -0.8119, 0.1497, 0.3320, 0.4562, -0.0177, 0.4750, 1.0008, 0.0000, 0.0000, 0.0000, 0.0000
1, 1.8600, 186, -0.6595, -0.8427, -1.5409, 71.6178, -42.3512, 79.8495, 0.0000, 0.0000, 0.0000, 0.0000, 0.0000, 0.0000, -0.8090, 0.1588, 0.3308, 0.4592, 1.0533, 0.2871, 0.8086, 0.0000, 0.0000, 0.0000, 0.0000
2, 1.8400, 184, -0.5277, -0.6230, -0.7676, 67.2087, -12.8850, -47.8710, 0.0000, 0.0000, 0.0000, 0.0000, 0.0000, 0.0000, 0.7887, -0.1999, 0.4022, 0.4197, 0.0596, -0.0259, 0.1677, 0.0000, 0.0000, 0.0000, 0.0000
3, 1.8200, 182, -0.1904, -1.0661, -0.4347, -3.9664, -47.8951, -5.2122, 0.0000, 0.0000, 0.0000, 0.0000, 0.0000, 0.0000, -0.3117, 0.4263, 0.4880, 0.6949, -0.0978, 0.1221, 0.2741, 0.0000, 0.0000, 0.0000, 0.0000
3, 1.8300, 183, -0.2051, -1.0924, -0.4320, -4.3616, -51.5147, -5.8022, 0.0000, 0.0000, 0.0000, 0.0000, 0.0000, 0.0000, -0.3144, 0.4291, 0.4866, 0.6930, -0.0835, 0.1483, 0.2731, 0.0000, 0.0000, 0.0000, 0.0000
3, 1.8400, 184, -0.2497, -1.0881, -0.4171, -6.9440, -53.7122, -4.8317, 0.0000, 0.0000, 0.0000, 0.0000, 0.0000, 0.0000, -0.3172, 0.4319, 0.4849, 0.6912, -0.0394, 0.1438, 0.2599, 0.0000, 0.0000, 0.0000, 0.0000
3, 1.8500, 185, -0.3417, -1.1143, -0.3786, -9.2733, -54.8751, -0.7571, 0.0000, 0.0000, 0.0000, 0.0000, 0.0000, 0.0000, -0.3199, 0.4349, 0.4828, 0.6895, 0.0515, 0.1701, 0.2227, 0.0000, 0.0000, 0.0000, 0.0000
3, 1.8600, 186, -0.4185, -1.1558, -0.3535, -9.9962, -56.4590, 6.2338, 0.0000, 0.0000, 0.0000, 0.0000, 0.0000, 0.0000, -0.3223, 0.4383, 0.4804, 0.6879, 0.1262, 0.2121, 0.1988, 0.0000, 0.0000, 0.0000, 0.0000
2, 1.8500, 185, -0.5518, -0.6144, -0.7393, 72.6663, -13.1279, -52.3710, 0.0000, 0.0000, 0.0000, 0.0000, 0.0000, 0.0000, 0.7851, -0.2063, 0.4048, 0.4210, 0.0881, -0.0458, 0.1485, 0.0000, 0.0000, 0.0000, 0.0000
2, 1.8600, 186, -0.5489, -0.6258, -0.7362, 77.4427, -13.0310, -57.0517, 0.0000, 0.0000, 0.0000, 0.0000, 0.0000, 0.0000, 0.7811, -0.2131, 0.4075, 0.4224, 0.0903, -0.0467, 0.1553, 0.0000, 0.0000, 0.0000, 0.0000
2, 1.8700, 187, -0.5687, -0.6356, -0.7638, 82.6009, -13.6686, -61.5105, 0.0000, 0.0000, 0.0000, 0.0000, 0.0000, 0.0000, 0.7768, -0.2204, 0.4103, 0.4239, 0.1159, -0.0497, 0.1936, 0.0000, 0.0000, 0.0000, 0.0000
2, 1.8800, 188, -0.6472, -0.6352, -0.7307, 87.3596, -11.8886, -69.2949, 0.0000, 0.0000, 0.0000, 0.0000, 0.0000, 0.0000, 0.7721, -0.2283, 0.4130, 0.4257, 0.2010, -0.0637, 0.1718, 0.0000, 0.0000, 0.0000, 0.0000
1, 1.8700, 187, -0.2348, -0.7870, -0.9570, 65.6991, -20.5308, 62.0341, 0.0000, 0.0000, 0.0000, 0.0000, 0.0000, 0.0000, -0.8062, 0.1660, 0.3311, 0.4614, 0.6186, 0.2184, 0.2295, 0.0000, 0.0000, 0.0000, 0.0000
3, 1.8700, 187, -0.4294, -1.2065, -0.3735, -8.2603, -55.8717, 16.5151, 0.0000, 0.0000, 0.0000, 0.0000, 0.0000, 0.0000, -0.3240, 0.4421, 0.4776, 0.6866, 0.1336, 0.2636, 0.2201, 0.0000, 0.0000, 0.0000, 0.0000
1, 1.8800, 188, 0.3715, -0.8142, -0.6035, 65.8880, -19.3078, 58.9188, 0.0000, 0.0000, 0.0000, 0.0000, 0.0000, 0.0000, -0.8034, 0.1731, 0.3316, 0.4633, 0.0040, 0.2333, -0.1187, 0.0000, 0.0000, 0.0000, 0.0000
3, 1.8800, 188, -0.3631, -1.2547, -0.3866, -0.5929, -52.0549, 27.1757, 0.0000, 0.0000, 0.0000, 0.0000, 0.0000, 0.0000, -0.3246, 0.4463, 0.4751, 0.6854, 0.0620, 0.3132, 0.2354, 0.0000, 0.0000, 0.0000, 0.0000
2, 1.8900, 189, -0.6737, -0.6116, -0.7199, 94.4062, -8.9485, -79.6660, 0.0000, 0.0000, 0.0000, 0.0000, 0.0000, 0.0000, 0.7669, -0.2372, 0.4155, 0.4278, 0.2359, -0.1019, 0.1730, 0.0000, 0.0000, 0.0000, 0.0000
2, 1.9000, 190, -0.7170, -0.6012, -0.7063, 101.7825, -6.8341, -92.8002, 0.0000, 0.0000, 0.0000, 0.0000, 0.0000, 0.0000, 0.7610, -0.2471, 0.4178, 0.4304, 0.2895, -0.1283, 0.1724, 0.0000, 0.0000, 0.0000, 0.0000
1, 1.8900, 189, 0.8629, -0.8019, -0.5401, 69.9979, -25.3577, 43.5326, 0.0000, 0.0000, 0.0000, 0.0000, 0.0000, 0.0000, -0.8013, 0.1803, 0.3320, 0.4640, -0.4954, 0.2092, -0.1766, 0.0000, 0.0000, 0.0000, 0.0000
3, 1.8900, 189, -0.3063, -1.2230, -0.3671, 1.9087, -45.8274, 31.1722, 0.0000, 0.0000, 0.0000, 0.0000, 0.0000, 0.0000, -0.3245, 0.4504, 0.4727, 0.6844, -0.0010, 0.2831, 0.2186, 0.0000, 0.0000, 0.0000, 0.0000
2, 1.9100, 191, -0.7662, -0.5932, -0.7109, 113.3178, -2.9564, -109.0474, 0.0000, 0.0000, 0.0000, 0.0000, 0.0000, 0.0000, 0.7543, -0.2585, 0.4199, 0.4335, 0.3515, -0.1538, 0.1914, 0.0000, 0.0000, 0.0000, 0.0000
3, 1.9000, 190, -0.3046, -1.1241, -0.3048, 0.3081, -36.6062, 28.3005, 0.0000, 0.0000, 0.0000, 0.0000, 0.0000, 0.0000, -0.3244, 0.4538, 0.4705, 0.6837, -0.0087, 0.1857, 0.1588, 0.0000, 0.0000, 0.0000, 0.0000
3, 1.9100, 191, -0.3303, -1.0242, -0.2366, -4.1567, -25.7554, 20.0479, 0.0000, 0.0000, 0.0000, 0.0000, 0.0000, 0.0000, -0.3244, 0.4560, 0.4688, 0.6834, 0.0125, 0.0872, 0.0917, 0.0000, 0.0000, 0.0000, 0.0000
2, 1.9200, 192, -0.8927, -0.6367, -0.6946, 126.5559, 3.8700, -128.8940, 0.0000, 0.0000, 0.0000, 0.0000, 0.0000, 0.0000, 0.7466, -0.2716, 0.4214, 0.4372, 0.4941, -0.1297, 0.1911, 0.0000, 0.0000, 0.0000, 0.0000
2, 1.9300, 193, -0.9238, -0.5919, -0.6702, 141.4372, 13.7474, -151.5397, 0.0000, 0.0000, 0.0000, 0.0000, 0.0000, 0.0000, 0.7379, -0.2869, 0.4223, 0.4415, 0.5454, -0.1960, 0.1843, 0.0000, 0.0000, 0.0000, 0.0000
1, 1.9000, 190, 1.1919, -1.5516, -0.7795, 57.9577, -44.8129, 43.9874, 0.0000, 0.0000, 0.0000, 0.0000, 0.0000, 0.0000, -0.7999, 0.1875, 0.3305, 0.4646, -0.8327, 0.9481, 0.0676, 0.0000, 0.0000, 0.0000, 0.0000
3, 1.9200, 192, -0.4114, -0.9756, -0.2021, -10.0131, -13.7605, 11.0067, 0.0000, 0.0000, 0.0000, 0.0000, 0.0000, 0.0000, -0.3247, 0.4571, 0.4671, 0.6836, 0.0907, 0.0396, 0.0570, 0.0000, 0.0000, 0.0000, 0.0000
3, 1.9300, 193, -0.5361, -0.9587, -0.2302, -11.9662, -4.8045, 4.8675, 0.0000, 0.0000, 0.0000, 0.0000, 0.0000, 0.0000, -0.3251, 0.4573, 0.4661, 0.6841, 0.2138, 0.0235, 0.0835, 0.0000, 0.0000, 0.0000, 0.0000
3, 1.9400, 194, -0.6097, -0.9240, -0.2066, -8.2737, -4.9455, -1.0027, 0.0000, 0.0000, 0.0000, 0.0000, 0.0000, 0.0000, -0.3257, 0.4573, 0.4655, 0.6842, 0.2871, -0.0109, 0.0586, 0.0000, 0.0000, 0.0000, 0.0000
2, 1.9400, 194, -0.8911, -0.6343, -0.6461, 160.3358, 17.6311, -177.8539, 0.0000, 0.0000, 0.0000, 0.0000, 0.0000, 0.0000, 0.7275, -0.3044, 0.4228, 0.4465, 0.5374, -0.1769, 0.1805, 0.0000, 0.0000, 0.0000, 0.0000
