Packet number,Gyroscope X (deg/s),Gyroscope Y (deg/s),Gyroscope Z (deg/s),Accelerometer X (g),Accelerometer Y (g),Accelerometer Z (g),Magnetometer X (G),Magnetometer Y (G),Magnetometer Z (G)
,-0.478935421,0.220817934,-0.807641308,-0.351256677,0.447566055,0.825652497,,,
,-0.513599368,-0.00515662,0.115909362,-0.352829154,0.448344954,0.824912538,,,
,-1.199257961,-0.597881459,-1.029318679,-0.353611111,0.447584811,0.822596942,,,
,-1.279987714,0.295015969,-0.149312801,-0.352035372,0.450662589,0.823344343,,,
,-0.868546722,0.957183293,-0.087662543,-0.348888991,0.446025382,0.823263609,,,
,-1.38403685,0.845972185,-0.455214968,-0.352045668,0.448336697,0.826449337,,,
,-1.167745282,0.563675879,0.316902956,-0.353614475,0.446039144,0.823371356,,,
,-0.970647801,0.300630955,0.060561639,-0.355187666,0.446046687,0.822629867,,,
,-0.568374133,0.746621303,-0.290489602,-0.353613863,0.446810499,0.823372783,,,
,-1.481210492,0.652025971,-0.149771168,-0.350464118,0.446029969,0.82329949,,,
,0.09665798,0.296734842,0.075057471,-0.348885729,0.449882059,0.82327105,,,
,-1.189002016,0.782259278,-0.864192242,-0.355188379,0.447586442,0.823410194,,,
,-0.471143195,0.638446871,-0.495322014,-0.356762895,0.448362385,0.823447706,,,
,-0.26132605,0.546601737,-0.133556462,-0.353614475,0.446039144,0.823371356,,,
,-0.473435026,0.533022637,-0.599485741,-0.3536158,0.444496432,0.823368298,,,
,-0.571869175,0.184263227,-0.346696762,-0.350471662,0.444478389,0.825628644,,,
,-0.255997543,1.362952003,-0.075859612,-0.352044241,0.4475684,0.82567054,,,
,-0.062796174,0.336039747,-0.338159691,-0.35519103,0.444501019,0.823404281,,,
,-0.050248399,0.356551636,0.330825831,-0.355189093,0.446815087,0.823408767,,,
,0.152464069,1.214441343,0.083537247,-0.358333333,0.449144139,0.821930377,,,
,-0.877542159,0.7412355,-0.500364042,-0.352824261,0.449122222,0.823359327,,,
,0.094136966,-0.41419119,0.121237869,-0.355184302,0.447592355,0.821855556,,,
,-0.573072387,0.233938668,-0.397403527,-0.352038022,0.447577268,0.82333843,,,
,-0.982794506,0.281837939,-0.556513906,-0.355182263,0.44990632,0.821860041,,,
,-1.08266105,0.03231482,-0.405596823,-0.356759429,0.447596942,0.821891437,,,
,-1.074353162,0.348530227,-0.043430201,-0.352033843,0.44758318,0.82178369,,,
,-0.866140299,-0.45275125,0.416253838,-0.355188379,0.447586442,0.823410194,,,
,-0.15544345,0.603324558,0.073968851,-0.352042202,0.447571356,0.82489317,,,
,-1.48842976,0.539325173,-0.510390804,-0.353617329,0.447575943,0.824929052,,,
,-0.471945336,-0.070301921,-0.346811353,-0.353613252,0.447581855,0.823374312,,,
,-0.568889795,1.35172203,-0.491311309,-0.355980122,0.447582773,0.824982977,,,
,-1.285316222,-0.016443889,-0.357239185,-0.356760245,0.449136595,0.822671764,,,
,-0.463866631,0.548836272,-0.084797754,-0.353613252,0.447581855,0.823374312,,,
,-1.17496455,-0.66044845,0.255825656,-0.3536158,0.444496432,0.823368298,,,
,-0.974085548,0.14295297,-0.094996402,-0.355193884,0.446037819,0.824961978,,,
,-0.867629989,-0.203285426,0.26350329,-0.350467686,0.446795413,0.824855759,,,
,-0.110867333,0.08783443,-0.135103448,-0.355979918,0.442960652,0.823419266,,,
,-1.119731419,0.407774063,0.213770553,-0.355975943,0.447588685,0.823428236,,,
,-0.365890848,0.542419145,-0.289171799,-0.355977268,0.446046075,0.823425178,,,
,-0.512510748,0.551930244,0.017131438,-0.352043527,0.446028644,0.824890112,,,
,-0.5633894,0.552216723,0.016673072,-0.353617329,0.447575943,0.824929052,,,
,-0.675746424,-0.171543564,-0.350478283,-0.353614475,0.446039144,0.823371356,,,
,-0.956209264,0.677579889,0.732182766,-0.353612538,0.448353211,0.823375841,,,
,0.561441343,0.104736685,0.491597788,-0.355188379,0.447586442,0.823410194,,,
,-0.266883741,-0.674142142,-0.091444064,-0.355186952,0.446818043,0.822631397,,,
,-0.865510045,0.255252698,0.267112924,-0.350462895,0.447572681,0.823302446,,,
,-0.862759848,0.562873738,0.321314732,-0.355188379,0.447586442,0.823410194,,,
,-0.165183732,0.285562165,-0.339592085,-0.355185015,0.449132008,0.822635882,,,
,-1.128039307,0.19291489,-0.147994998,-0.353607747,0.449130377,0.821822528,,,
,-0.457163025,0.559607879,0.275077037,-0.350462895,0.447572681,0.823302446,,,
,-0.568316837,-0.062796174,-0.091329473,-0.348899388,0.448321611,0.827932212,,,
,-0.872672018,0.293583574,-0.14404159,-0.352043527,0.446028644,0.824890112,,,
,0.762091163,0.754700008,0.139056857,-0.352839348,0.446019062,0.828017533,,,
,0.133384575,1.02863113,-0.947500306,-0.349700102,0.447534862,0.832612946,,,
,0.754700008,2.358752651,-0.67144924,-0.345756881,0.453694088,0.832535066,,,
,1.049601385,3.20397999,-1.327944282,-0.347305301,0.470685933,0.827939653,,,
,-0.685486706,2.644486703,-1.611042728,-0.383535576,0.464626707,0.827199185,,,
,-2.648096338,0.987148985,-2.728997978,-0.380380326,0.492359123,0.834177472,,,
,-6.246271291,-2.806862943,-3.890211542,-0.358352599,0.477621611,0.838310296,,,
,-8.596257688,-4.786202942,-3.988301916,-0.372521509,0.474592355,0.834740775,,,
,-7.988234875,-3.528388694,-4.434578743,-0.372503058,0.449965749,0.819923038,,,
,-8.074006657,-3.809882859,-3.566203908,-0.347328848,0.442917635,0.827885831,,,
,-7.555078782,-2.283294109,-3.497964635,-0.336327319,0.425901325,0.831488379,,,
,-5.915731939,-1.915913571,-3.008601382,-0.35839419,0.421322732,0.835869113,,,
,-6.267757208,-2.410605331,-2.605353686,-0.362306014,0.422912334,0.826633537,,,
,-5.769627701,-3.20506861,-0.239267175,-0.365451376,0.419076656,0.823588379,,,
,-4.357344032,-3.324988677,-0.682564621,-0.364633945,0.432213761,0.816599592,,,
,-4.658605241,-3.872335258,-0.228495569,-0.339423038,0.453723038,0.819953517,,,
,-4.770847673,-3.940975602,-0.795494603,-0.337869215,0.46755525,0.832382365,,,
,-6.101599448,-5.368671836,-1.081056768,-0.370981651,0.447573089,0.839316718,,,
,-5.793978407,-6.279846618,-0.830330437,-0.362338328,0.404376555,0.832816514,,,
,-4.154459677,-5.208071766,-0.544023426,-0.360000815,0.384302956,0.835833231,,,
,-2.944487405,-6.39100043,-0.792056856,-0.369471967,0.39970999,0.848516514,,,
,-2.712554089,-8.162700524,1.205503201,-0.385231091,0.422857594,0.859026402,,,
,-2.326609719,-12.23602938,1.231744668,-0.396238736,0.42291631,0.852281549,,,
,-1.824125732,-13.60854978,1.481210492,-0.345783384,0.412824873,0.829346381,,,
,-0.072937527,-12.41462032,2.489673507,-0.315831498,0.415852701,0.820896228,,,
,1.159723873,-11.38799454,2.875961653,-0.325292253,0.428963405,0.828910805,,,
,-0.048128455,-11.66719688,3.527815736,-0.352082977,0.43364577,0.835749337,,,
,0.359702904,-13.94006316,4.184368074,-0.353660143,0.431336391,0.835780734,,,
,0.558977625,-13.59101727,4.032591554,-0.318960754,0.421284913,0.814759531,,,
,1.748323416,-11.99733516,4.777551279,-0.273264934,0.415010703,0.805932212,,,
,2.238717993,-6.440503984,5.031772653,-0.267747197,0.405756269,0.801124363,,,
,4.227339908,-2.497007367,4.36674054,-0.244879103,0.384928644,0.783461162,,,
,4.505740101,2.70006361,4.413780375,-0.258226096,0.415073598,0.77760581,,,
,5.921919883,7.772802745,5.601521884,-0.232156983,0.405094699,0.744344343,,,
,7.311342536,14.31535051,4.851921201,-0.241597655,0.449050153,0.754750866,,,
,6.613021576,17.01323688,4.611679997,-0.300736799,0.47685739,0.791133129,,,
,3.632208646,13.88144957,3.36526761,-0.34965474,0.452222018,0.817074516,,,
,-6.096672011,7.526373597,0.773091953,-0.446690418,0.471533333,0.886174516,,,
,-10.32544431,2.482568831,-1.432680967,-0.468841998,0.447573598,0.916170948,,,
,-7.77286004,-2.115474771,0.25725805,-0.409042304,0.416501223,0.926406626,,,
,-4.076709304,-5.062368599,2.695250764,-0.37918053,0.350064016,0.929482365,,,
,2.043396681,-4.529976216,4.17531534,-0.344404485,0.430259327,0.908636086,,,
,2.240723345,-4.924744136,4.537023597,-0.326902243,0.465897554,0.85389419,,,
,0.949849433,-3.027795468,3.196187764,-0.295345566,0.484371254,0.839219062,,,
,-0.356551636,-2.273324644,1.126148546,-0.280383384,0.484324669,0.839655148,,,
,-1.296374307,0.516349565,-0.974830393,-0.270945056,0.476574822,0.841756779,,,
,-0.979700534,2.953139068,-1.209685793,-0.287526707,0.448828135,0.849076453,,,
,0.339133719,4.810553648,-1.949202419,-0.296205301,0.43111264,0.849239551,,,
,0.322116872,5.540272696,-3.12605773,-0.3174737,0.414991233,0.84580632,,,
,2.782168462,7.687374737,-2.611942701,-0.326913252,0.418887258,0.842919878,,,
,3.553541541,8.461039648,-2.284611912,-0.347361978,0.42823262,0.835631091,,,
,4.428734573,6.658686312,-1.15582776,-0.337106728,0.428226504,0.829178695,,,
,4.786489421,6.259162841,-0.845112748,-0.328421713,0.441328746,0.825119674,,,
,4.5288303,5.801713338,-0.851759058,-0.326830989,0.447509684,0.82120897,,,
,2.287705884,5.805724042,-1.03487637,-0.340988787,0.459904281,0.818446687,,,
,1.705122398,3.241336839,-1.680771692,-0.342583996,0.443701835,0.820783282,,,
,2.245937261,1.894026583,-2.302316308,-0.32212314,0.443618552,0.82653527,,,
,1.934649291,2.490475648,-2.766068348,-0.304794699,0.442799694,0.825361264,,,
,3.559786781,2.883066329,-3.100847587,-0.324511111,0.421247706,0.82887788,,,
,5.189622525,2.119771955,-2.827718606,-0.314321814,0.428851376,0.849648216,,,
,7.047323584,3.925104671,-1.913564444,-0.33165739,0.418874414,0.850023955,,,
,9.884725177,4.507802749,-2.537859258,-0.338735474,0.421220897,0.84708053,,,
,11.74609317,3.243284895,-0.41161288,-0.342645566,0.446695515,0.844887564,,,
,14.90217389,6.421309897,-1.013848818,-0.331609684,0.433580224,0.836837105,,,
,14.77738368,9.971814762,-3.096894178,-0.309547503,0.449708155,0.837920285,,,
,14.97757513,15.12247616,-4.544414752,-0.315814883,0.459789399,0.828755046,,,
,13.7154064,21.13005323,-7.961191268,-0.259019266,0.505975637,0.808894801,,,
,16.42498111,28.76924222,-12.44859672,-0.238707136,0.435573089,0.847937411,,,
,26.0610999,40.86214674,-17.10995216,-0.225411621,0.427696432,0.880266463,,,
,38.86642015,53.60214979,-22.13387529,-0.34939317,0.295846891,0.964454128,,,
,63.59585154,65.91048644,-22.87866313,-0.213683996,0.469911111,0.925943833,,,
,86.58887704,81.71409483,-21.76844281,-0.387889806,0.354646279,0.948345668,,,
,106.4894774,104.487964,-19.01457846,-0.365973496,0.25269419,0.966302243,,,
,156.3784023,110.7446631,-23.41380571,-0.278205097,0.454779001,0.899401631,,,
,152.5871406,162.3552116,-26.16824301,-0.221722528,0.312539348,0.936701631,,,
,170.1113986,180.6471184,-34.05105365,-0.290942813,0.445376147,0.947867686,,,
,189.2863479,217.0603624,-44.88007057,-0.140997859,0.445372171,0.830959837,,,
,211.2077704,251.1159424,-61.13167466,-0.132217839,0.4362684,0.784102345,,,
,245.359722,308.2093533,-75.6841151,-0.184645668,0.594071356,0.707874108,,,
,282.9507381,379.2913568,-99.87404944,-0.037657085,0.612843221,0.524220591,,,
,236.4732039,367.5325439,-122.8840345,-0.832936086,1.195602243,1.249302752,,,
,268.0707949,390.1684448,-119.423484,-1.14156371,1.21206473,1.220614373,,,
,296.5562512,433.6916941,-122.4336897,-1.191204995,1.347353823,0.977931193,,,
,318.0968859,416.1429135,-107.2859461,-1.540522222,1.291125892,0.827211009,,,
,367.275687,393.9244697,-92.64716088,-1.300861162,1.49533211,1.095764832,,,
,329.4158964,312.0644425,-97.07824458,-1.915319368,1.851726809,1.570646993,,,
,314.4429622,194.1209085,-76.28360084,-1.81679419,2.073839042,1.906971458,,,
,205.4930894,67.5632405,-70.34609651,-0.609768603,1.501258919,1.829360652,,,
,135.5139151,12.59968569,-47.58678049,-1.488660347,2.595212844,2.472621305,,,
,-85.62075026,-155.0143044,13.06269288,-0.813021305,2.314193578,2.410805505,,,
,-158.3502939,-189.916888,35.81633662,0.167891845,1.07108787,1.558936086,,,
,-186.5728198,-188.6775802,35.81427397,0.179713354,0.484372987,1.071690724,,,
,-173.7612543,-194.306203,37.92516508,0.251831804,0.111927727,0.782484913,,,
,-153.6703746,-186.8286454,34.80953518,0.288440061,0.056123955,0.621412334,,,
,-135.0014616,-187.8421505,33.27979516,0.11681366,0.186150051,0.641126198,,,
,-128.3929664,-198.6043605,36.44825177,-0.017856473,0.4007263,0.709911723,,,
,-132.3831018,-213.860565,44.67890509,-0.145492457,0.590551682,0.790925586,,,
,-143.6478531,-232.9436119,61.72577459,-0.282544648,0.743475025,0.847207543,,,
,-161.0169541,-255.3785193,84.93474789,-0.424251784,0.862615189,0.866217941,,,
,-182.4726765,-272.730145,105.9516993,-0.44928634,0.866010703,0.80460948,,,
,-194.8317199,-279.8060592,121.0978386,-0.453897655,0.786065545,0.736153619,,,
,-199.6978505,-282.9045577,130.5720395,-0.509807339,0.733854332,0.717115698,,,
,-198.3389665,-284.3637666,132.7943136,-0.570462691,0.726311723,0.72003843,,,
,-187.8925708,-283.7160951,128.5211943,-0.585437615,0.718635984,0.72191947,,,
,-172.5758619,-273.4653645,124.0366537,-0.620885933,0.80347421,0.752432008,,,
,-157.7535011,-254.7589227,117.9647335,-0.642987971,0.903620285,0.803658002,,,
,-138.5067601,-236.6238918,113.5066634,-0.845106218,1.069908665,1.047229969,,,
,-131.3555593,-244.2082487,116.7408383,-1.292761468,1.48448634,1.303881753,,,
,-146.4576954,-263.6711666,125.6261532,-1.47678104,1.845197554,1.319665749,,,
,-170.0375443,-278.4014532,142.9643144,-1.674500204,2.104938022,1.124132314,,,
,-191.5792104,-279.0070123,162.6839175,-1.808868196,2.133094088,0.723819674,,,
,-198.9840597,-266.5722238,179.0949757,-1.954233028,2.088906524,0.289413863,,,
,-195.3269846,-239.1225607,184.8691298,-2.109061264,1.983866871,-0.159664322,,,
,-180.3546807,-198.3585043,172.9970432,-2.150330173,1.840955556,-0.678255556,,,
,-156.3621303,-146.0755899,145.5099086,-2.327085933,1.703031498,-1.184420285,,,
,-119.0091782,-107.5692737,122.8555585,-2.845879817,1.585814985,-1.59257686,,,
,-66.94330016,-89.32807367,109.4818641,-3.114349643,1.429162691,-1.969983384,,,
,-24.79732689,-35.68644709,86.66244482,-1.697193782,1.253987666,-2.457370133,,,
,-48.65471653,263.3951155,8.076298489,-1.159982773,1.782450663,-3.510197655,,,
,8.280672534,345.2415063,-115.1925345,-0.754095209,-1.264468196,-0.164266259,,,
,109.3951756,227.4670522,-18.02072587,-0.999858206,0.18869684,3.278398471,,,
,58.93289182,303.864557,-41.38835118,-1.457127931,-0.19524159,1.565522222,,,
,140.8982859,263.6024117,-40.42091194,-2.752086442,-0.141260652,1.374391233,,,
,168.7964604,148.0267403,-23.3636719,-2.149539246,0.888967686,1.381326198,,,
,130.2189829,143.6390295,-26.97221739,-0.865837615,1.990595107,1.142783486,,,
,-8.319003411,114.5542022,-43.31480717,-0.2314158,1.526320795,0.825809072,,,
,-33.70481526,96.53250228,-44.14777321,-1.851441488,0.970730887,1.551142508,,,
,-27.09912754,37.62430494,-32.26210753,-0.736610398,0.677952599,0.991131193,,,
,-33.12756028,25.58365417,-24.99774753,-0.585323955,0.592865851,0.934657492,,,
,-23.28099409,11.62875141,-17.21463155,-0.590142508,0.454074006,0.925167788,,,
,-13.55543659,5.539069484,-11.43658137,-0.35379317,0.455028848,0.893352192,,,
,-10.53549064,8.877866444,-13.37552784,-0.289082977,0.502788073,0.859322732,,,
,-8.347135638,8.597804674,-11.0302397,-0.4324684,0.402990724,0.846849949,,,
,-4.095387728,7.097973053,-6.407272431,-0.468717737,0.359924975,0.841373496,,,
,-0.532564271,6.216191007,-2.974223915,-0.388366667,0.401316616,0.846618451,,,
,1.202753004,7.513195568,-0.268144248,-0.367905097,0.399693578,0.851590112,,,
,4.693899441,6.901792304,1.678136086,-0.397811621,0.372077574,0.835116718,,,
,6.711513021,5.990732114,3.755795643,-0.399398573,0.37283578,0.839818349,,,
,8.387872938,3.9124996,4.377569442,-0.358428236,0.381213048,0.835791335,,,
,8.032066147,3.187135031,2.461885054,-0.265370438,0.431963099,0.804230785,,,
,4.772853025,4.08856953,-3.283793011,-0.226758104,0.470399898,0.808089704,,,
,3.47739545,4.98158155,-7.765411589,-0.309458716,0.425182161,0.796672069,,,
,3.60121163,2.078117923,-6.394724656,-0.426111519,0.352206014,0.809293986,,,
,8.777770717,-0.606590418,-3.570271909,-0.405688583,0.336660347,0.824344444,,,
,10.75109466,-1.234380274,-3.754764319,-0.362371764,0.367349235,0.833522222,,,
,13.17390399,0.355577608,-4.787291561,-0.350478593,0.399785117,0.813881448,,,
,15.36065471,1.879186976,-7.883899261,-0.323736697,0.405818654,0.828830071,,,
,16.02900998,6.40973615,-11.07825356,-0.278015698,0.468146279,0.832573598,,,
,14.59552687,12.50170991,-13.57102104,-0.30959317,0.435005403,0.850329766,,,
,16.27652775,16.75552047,-17.47635867,-0.322253721,0.399519062,0.861431498,,,
,19.18319994,20.22403507,-20.53744298,-0.402546687,0.443725382,0.861793986,,,
,27.88682992,19.76543965,-22.64048457,-0.338012334,0.396473598,0.86333945,,,
,44.09139417,17.92956828,-25.97481246,-0.426368807,0.390358716,0.918199898,,,
,43.64889886,39.70236557,-23.40280492,-0.420181855,0.310055963,0.935002854,,,
,65.72066552,51.38686577,-15.443619,-0.524165749,0.304164424,0.943580632,,,
,92.35105629,63.59694016,-14.01752705,-0.421946789,0.262024363,0.990916412,,,
,103.5550168,93.37246815,-9.983560397,-0.417170031,0.259002243,0.970591131,,,
,123.697921,117.1014579,-4.531695089,-0.426528033,0.307698165,0.951466667,,,
,147.4728047,142.4094048,-6.536302527,-0.319425178,0.322780326,0.957604995,,,
,176.5877697,165.1903786,-15.58307693,-0.196504791,0.349466565,0.942417635,,,
,210.5597552,203.6341278,-34.72502391,-0.018274414,0.444813048,0.881018858,,,
,249.559388,260.5960448,-62.19491244,0.144112538,0.473819878,0.833065953,,,
,298.4824207,348.301502,-89.58705059,0.120612742,0.500265138,0.794009888,,,
,328.980162,433.2053102,-119.7596956,-0.390614679,1.07369368,1.315157492,,,
,298.1894101,415.5322551,-130.4495411,-0.497548012,0.934048012,1.205387462,,,
,335.3717354,460.1980968,-112.8403708,-0.72765209,1.201809378,0.752536493,,,
,372.3084909,488.8970944,-115.4640592,-1.787317125,1.490210601,1.001129256,,,
,418.6797988,476.0081796,-87.39554432,-1.414291437,1.446332314,1.088927115,,,
,393.1435855,398.9159061,-106.875078,-2.00282844,2.168137819,2.002344241,,,
,339.2308353,228.8817995,-77.76080063,-2.416464526,2.706156779,2.832127217,,,
,174.3858356,36.08665811,-56.91665334,0.680144546,0.926869521,2.565269521,,,
,99.55537031,-55.19142012,-14.43790618,-2.366936086,3.742905199,3.789135678,,,
,-100.6262857,-192.3368325,51.62063255,-0.181559837,1.806700612,2.304468705,,,
,-160.0553017,-208.846153,65.91592954,0.703330785,0.607108359,1.444768502,,,
,-160.6189776,-196.6761284,67.64253786,0.35497686,0.109687564,1.086394597,,,
,-133.5920427,-203.7990251,76.90846862,0.187506218,-0.06429633,0.926634149,,,
,-115.2673627,-214.3307342,81.98854161,0.024000714,0.100724873,0.865389704,,,
,-118.404765,-232.0015547,82.61300831,-0.194818756,0.343456983,0.898837207,,,
,-134.638722,-250.440196,81.75769691,-0.349820591,0.527484913,0.903508665,,,
,-156.4598197,-267.0338559,85.76427618,-0.454446687,0.588058104,0.878806218,,,
,-171.4885599,-281.4692411,96.1019245,-0.581929867,0.611694393,0.849111315,,,
,-180.328783,-295.7896336,106.0085367,-0.660504485,0.63915158,0.790325178,,,
,-187.5454156,-305.6794581,114.6284575,-0.672919062,0.644848012,0.722214883,,,
,-192.3044604,-307.9989632,116.4504633,-0.67760051,0.677281753,0.716166463,,,
,-194.6756462,-304.728692,116.4521249,-0.72650316,0.768229052,0.773426707,,,
,-199.3835258,-304.9348995,117.2247585,-0.855017227,0.885509378,0.865201121,,,
,-198.4961288,-307.8573853,121.4940962,-0.958359939,0.965691947,0.956329154,,,
,-191.4446799,-310.4720782,126.421304,-1.103431193,1.076832008,1.053132926,,,
,-185.4178515,-309.9192885,133.2653422,-1.212186239,1.280439144,1.14618053,,,
,-192.2528942,-305.8509444,139.9295289,-1.416034455,1.684922528,1.228574822,,,
,-221.2742951,-300.1889755,154.0721899,-1.657291743,2.11627421,1.171956167,,,
,-256.7551077,-287.3009201,168.7802457,-1.886509888,2.259782161,0.938047197,,,
,-278.4526183,-273.5825916,175.5410331,-2.090339857,2.133839653,0.547567176,,,
,-274.8649285,-254.588124,161.6484109,-2.109548624,2.021691131,0.035529154,,,
,-250.9410757,-227.515639,124.2473876,-2.232651478,1.931513965,-0.492753109,,,
,-195.7884449,-207.2081813,91.40252466,-2.68970367,1.691295923,-1.058022834,,,
,-101.2376317,-198.4599179,86.79915255,-3.445558308,1.415659429,-1.809325892,,,
,-8.272479238,-172.1212199,88.84472647,-3.128272069,1.558167278,-2.615369725,,,
,29.58014938,-26.60701409,36.94225598,-1.605316514,1.450141896,-2.590448624,,,
,22.73823117,257.8517489,-16.08149291,-1.204056881,1.955308665,-2.282237207,,,
,-37.29531258,363.2232711,-120.0988866,-1.054771662,0.522352905,-0.836404281,,,
,44.28711655,271.9852999,-51.16759482,-1.225451172,0.577034455,2.353067686,,,
,38.74449473,304.7948113,10.5604716,-0.178543017,0.077713863,1.799641896,,,
,132.3939307,314.2782368,17.11224399,-2.124724975,-0.564229154,1.35615107,,,
,170.4608455,213.7463745,-26.36568427,-3.372969215,-0.020767992,1.820197248,,,
,173.6299324,117.3282346,-53.74825403,-1.368562385,0.454402039,1.047076758,,,
,128.17593,163.4462378,-47.89669336,-0.266846891,3.04603262,1.014594495,,,
,-12.94873158,134.2247027,-44.69844295,0.049503568,1.30439368,0.546906728,,,
,-37.31656931,66.84830376,-38.21118561,-2.081718756,0.639698267,1.562740571,,,
,-26.25504612,34.53812507,-26.35073007,-0.66881315,0.899723547,1.036659021,,,
,-22.63034322,25.71870032,-19.50995777,-0.686398675,0.424835984,0.981717737,,,
,-9.421030434,9.103840998,-11.54011484,-0.542769011,0.517277982,0.900114373,,,
,-7.6743113,8.744023503,-12.4597121,-0.298520693,0.542895719,0.867389602,,,
,-7.378206711,11.15136298,-13.92602569,-0.397769215,0.470749949,0.850855352,,,
,-1.020953495,7.16277458,-10.42708703,-0.426213252,0.402907238,0.863808257,,,
,1.149754407,7.38324874,-7.874617345,-0.35595841,0.485363609,0.828943017,,,
,0.961537772,8.795818888,-4.989602959,-0.358374516,0.444462895,0.835913965,,,
,3.201172497,9.215796952,-2.695136173,-0.391552905,0.385866463,0.855211417,,,
,9.367516176,7.986229523,1.132279195,-0.380533028,0.373498777,0.853381346,,,
,11.85111633,9.67359023,-1.543892075,-0.293717839,0.482900917,0.818968603,,,
,9.029872147,10.22993225,-5.432212856,-0.308572987,0.499278695,0.783582467,,,
,6.71953443,7.696312879,-8.721448966,-0.345575841,0.481687156,0.773509072,,,
,4.647489859,5.918081066,-10.46123531,-0.350349134,0.46930632,0.787585525,,,
,4.045712287,6.271309547,-10.62395532,-0.374890214,0.409106422,0.816010907,,,
,6.29176414,6.12234052,-10.33661699,-0.416673904,0.375271356,0.821561162,,,
,7.496579791,4.68427375,-10.48621627,-0.370948114,0.409100815,0.814366361,,,
,7.249176616,6.238479065,-12.894186,-0.328348318,0.452219266,0.801042304,,,
,8.411364207,7.710350345,-16.31004578,-0.347230275,0.461548216,0.796827115,,,
,10.16690689,7.653570227,-17.93289144,-0.366243017,0.433710703,0.829853721,,,
,17.47360847,5.240386586,-21.14168427,-0.42304893,0.385198675,0.85281896,,,
,26.22972138,3.769718517,-24.78558126,-0.35044842,0.4645421,0.823335372,,,
,25.85042332,13.85045256,-26.61755651,-0.394690826,0.400531091,0.855311723,,,
,33.47293924,18.88044904,-22.72281861,-0.36950265,0.390421305,0.857049643,,,
,42.22040049,27.68589362,-20.22437884,-0.415367482,0.302464832,0.899121305,,,
,53.01303459,38.34267942,-16.75557776,-0.372856881,0.33312946,0.915313252,,,
,69.53587689,55.76019533,-13.25595155,-0.398054128,0.330129358,0.912772579,,,
,86.15004867,76.58325777,-11.37985854,-0.363482365,0.316043629,0.938385831,,,
,106.2084416,103.4027819,-11.45898402,-0.393370744,0.343922732,0.93290316,,,
,126.0252183,133.6046478,-12.1949483,-0.341501121,0.305091845,0.961182977,,,
,152.1326705,158.2150186,-16.9967357,-0.305219368,0.303520591,0.940142304,,,
,183.0921012,188.3744283,-29.40270436,-0.167975127,0.391237513,0.888990928,,,
,212.9391343,234.28101,-51.3742607,0.002247401,0.455602446,0.867357594,,,
,251.7893397,301.7617446,-84.42435708,0.196037309,0.482832722,0.855996738,,,
,308.2980471,395.7705397,-119.4875407,0.328933945,0.521027013,0.647050765,,,
,306.9568675,457.9894591,-155.4082702,-0.858863914,1.30711947,1.557932416,,,
,330.8373474,474.7589597,-152.4862428,-0.928050866,1.167280836,1.469066463,,,
,357.4051711,532.6766276,-162.8574091,-1.440415596,1.708154536,1.223734862,,,
,376.0467541,523.2313038,-116.3059633,-1.917862589,1.777103466,1.318706014,,,
,379.7367742,444.7806046,-124.084553,-2.035960958,2.163535066,2.021746381,,,
,353.9843839,301.5449374,-97.79014464,-2.414344546,2.459273904,2.844032824,,,
,252.8992163,99.46845262,-59.76929561,-1.228711315,1.920828135,2.529892762,,,
,184.2038112,0.844654382,3.627052026,-1.316079817,2.754794903,3.370694903,,,
,-96.98995179,-183.2258868,80.08276939,-0.355422018,2.584468298,2.780235882,,,
,-165.3628389,-182.8837164,105.5381956,0.819328848,0.840164016,1.729412538,,,
,-187.5693653,-170.8614576,104.7505505,0.407145566,0.207288787,1.34191315,,,
,-165.421166,-195.7592813,109.6533504,0.040205708,-0.075039144,1.230018451,,,
,-143.8556076,-229.4766443,109.6571319,-0.104292559,0.013807034,1.104450968,,,
,-141.373669,-255.509039,104.1138798,-0.202309888,0.210392864,1.007572987,,,
,-154.8765654,-269.5113254,93.91500189,-0.270474006,0.391376045,0.933303466,,,
,-172.7261488,-277.1026724,87.92031637,-0.407343221,0.484469215,0.901626606,,,
,-187.1210258,-286.6755367,87.30994443,-0.619931295,0.569921407,0.910527217,,,
,-199.4757147,-305.1813286,89.73917089,-0.761573904,0.65294475,0.893708563,,,
,-209.8158268,-321.6769554,93.48614298,-0.790561774,0.689457187,0.848578797,,,
,-212.2980518,-329.9284071,96.47406059,-0.769207238,0.709553619,0.820924873,,,
,-212.1644954,-331.3355915,98.68355773,-0.797555963,0.790535168,0.845826809,,,
,-212.6138089,-330.9271871,101.8292679,-0.857425382,0.910104485,0.890178593,,,
,-207.0136621,-327.4401087,106.5170367,-0.907151784,0.977890214,0.953630887,,,
,-188.9560377,-319.5269886,112.3404078,-1.045234455,1.034938838,1.070379918,,,
,-168.632308,-315.6945312,121.3670714,-1.225762181,1.272507339,1.214101733,,,
,-166.8838127,-316.0575,128.7988497,-1.522616106,1.814293578,1.368844241,,,
,-197.9645386,-319.3124159,143.9870441,-1.845788175,2.32753945,1.342237207,,,
,-238.9215098,-311.8675169,166.5912032,-2.020512946,2.390980428,1.025310092,,,
,-253.2324485,-292.0814508,186.2411345,-2.13446789,2.180159735,0.571983588,,,
,-255.2719491,-259.9842405,181.9984393,-2.099712436,2.25333476,-0.034978186,,,
,-253.8910062,-213.5939105,145.2225703,-2.291531804,2.262816004,-0.751943119,,,
,-210.3023252,-184.3187465,122.6054624,-3.245802446,1.945467278,-1.53378369,,,
,-88.67358398,-192.0627868,140.8639658,-4.051707849,1.457082875,-2.485688991,,,
,26.9761708,-141.6689715,107.5990675,-2.489871458,1.227219674,-2.904967482,,,
,70.45421364,35.73698196,25.14912298,-0.69392314,1.237023242,-2.439078491,,,
,21.39011877,295.7831592,-52.46752147,-1.119396126,2.133224567,-2.077050968,,,
,-68.63129112,375.6348547,-150.2641405,-1.93878104,0.415114679,-0.135524057,,,
,63.67165386,266.1399272,-91.15706954,-1.641464832,0.145043221,2.28552895,,,
,55.72455735,301.9709315,-27.46467461,-0.577162895,-0.036825994,1.808505708,,,
,138.080193,290.1751056,-0.864306834,-1.97135158,-0.061541896,1.29611631,,,
,156.4724247,219.3089353,-30.3414957,-2.351137309,0.669669725,1.601589195,,,
,153.2095447,157.5151506,-40.27412015,-0.983697757,0.417045056,0.83146106,,,
,154.8816647,183.1725445,-16.98562032,-0.72280265,1.869142508,0.920079409,,,
,-15.44350441,139.9169238,-53.95795658,-1.001019368,1.646668196,1.224479409,,,
,-67.31652487,49.4235113,-47.94058193,-1.695910601,0.547092457,1.270817431,,,
,-38.35041436,28.35413429,-28.5807964,-0.763571865,0.654656677,1.053108869,,,
,-23.7424543,15.01928646,-16.3232811,-0.633632314,0.383077166,0.967995821,,,
,-9.159876271,4.243325431,-7.158420101,-0.498641998,0.462481957,0.873349439,,,
,-6.708820119,3.569355176,-8.373491697,-0.29220999,0.535187564,0.861012029,,,
,-3.091622967,7.255593743,-9.118336831,-0.337101631,0.482932416,0.84483211,,,
,-0.987664647,6.923507405,-8.26864042,-0.404066259,0.421467584,0.833801325,,,
,1.905485739,6.731108177,-5.816037283,-0.38047054,0.412878491,0.842574516,,,
,5.508874609,8.555062022,-3.95552873,-0.353714679,0.40121264,0.846605607,,,
,7.377862936,9.521183456,-2.224164865,-0.385217737,0.387438124,0.842632926,,,
,11.32256276,7.61036921,2.287476701,-0.416778389,0.33506106,0.847913863,,,
,15.42992531,6.097817926,5.055149331,-0.363193986,0.353434862,0.84206422,,,
,15.78212247,6.480782917,2.750884966,-0.293745056,0.445882467,0.8173421,,,
,12.42699621,6.752708686,-2.173687283,-0.296729154,0.495434964,0.770867686,,,
,8.346448089,3.955356843,-7.647955241,-0.345555148,0.48171682,0.765735474,,,
,5.453412294,3.120786519,-10.21721259,-0.34407054,0.438440265,0.785827319,,,
,5.641743521,3.843057115,-11.49737219,-0.344150357,0.402887564,0.804415291,,,
,8.912243912,5.871671485,-11.48826216,-0.39147421,0.356703466,0.81628634,,,
,12.95371631,7.263328673,-10.4953836,-0.397777472,0.365963099,0.820334862,,,
,15.17782388,8.40019153,-11.32903719,-0.383584302,0.397531906,0.823959633,,,
,17.22425724,9.445266549,-13.55280098,-0.388313558,0.432208665,0.836572579,,,
,21.57002752,9.381209867,-15.08947379,-0.385217533,0.412091335,0.850454434,,,
,28.82458994,7.825915932,-18.34656697,-0.365610194,0.402671356,0.877972579,,,
,29.67061942,15.36672807,-22.95475192,-0.257468909,0.520573191,0.822879817,,,
,36.63778621,20.49309605,-22.87448053,-0.3853737,0.35485841,0.890766769,,,
,46.53694992,36.79242752,-15.25735042,-0.505244139,0.273320897,0.925987666,,,
,70.55757523,47.92104407,-11.40105798,-0.440705912,0.274610296,0.94161998,,,
,90.22314834,72.62228594,-7.34102175,-0.402857594,0.311542202,0.936165443,,,
,108.4618274,99.21531986,-4.834044918,-0.40459949,0.241972375,0.976489806,,,
,128.4625235,128.4268855,-3.151783535,-0.379355963,0.260446585,0.966622528,,,
,155.2346067,157.6377636,-3.950085631,-0.353432008,0.25026055,0.987776656,,,
,192.5050529,182.5178256,-16.56959566,-0.125462895,0.384925076,0.892673293,,,
,223.6653053,223.5936283,-39.94295055,0.029136391,0.508070133,0.841972885,,,
,267.5452207,282.7635527,-67.9460336,0.188398267,0.527877472,0.781635984,,,
,327.4272172,373.5753579,-100.172675,0.337307645,0.425828135,0.725183282,,,
,325.4636335,420.3212656,-126.1400963,-0.832795617,1.237818451,1.505899083,,,
,359.2622992,441.0234912,-129.4895503,-0.7627158,1.10200051,1.466723955,,,
,394.8549531,507.1177825,-137.5176631,-1.147488175,1.72570948,1.244297146,,,
,397.8903689,508.499814,-121.7043717,-2.018678695,1.900241794,1.066283282,,,
,413.0987888,437.7916082,-114.6594545,-2.161529664,2.31861998,1.906759531,,,
,356.3760816,324.8942853,-127.924115,-1.768654536,2.263827421,2.818046789,,,
,268.6744633,155.0273679,-90.09182641,-1.47699001,2.266424669,2.716568807,,,
,169.0759492,80.30181116,-64.10326296,-0.562550051,1.936047299,2.869194597,,,
,-72.27243791,-143.4943577,24.36841069,-0.861940673,2.848156575,3.208168298,,,
,-158.8321514,-185.1311434,60.8133393,0.533810296,1.198646789,2.00480051,,,
,-194.2906759,-185.6882875,65.73109336,0.461567686,0.411399388,1.376828848,,,
,-179.1796016,-206.025138,74.16285486,0.180673598,0.06978318,1.169577472,,,
,-151.4039255,-231.2442191,82.85049932,-0.001641794,0.075517737,1.022944444,,,
,-137.9673776,-262.1338636,87.71158784,-0.187171865,0.290719572,0.967741488,,,
,-147.1785909,-286.1505355,86.66101243,-0.353840163,0.575144852,0.949555657,,,
,-172.6850677,-306.8720125,88.28271217,-0.501646177,0.751601529,0.911295311,,,
,-199.9992836,-322.4065599,94.53591625,-0.629074516,0.78379052,0.863737513,,,
,-217.6298252,-335.924124,101.4405733,-0.692723955,0.71407737,0.788097044,,,
,-220.2744838,-344.4880668,103.9588947,-0.720891539,0.640466463,0.69531631,,,
,-213.8186818,-349.137161,102.5201404,-0.730318247,0.620498369,0.679945668,,,
,-205.528269,-348.881278,100.2190846,-0.71057105,0.634390214,0.662421509,,,
,-184.018975,-337.8722378,94.88393082,-0.649157187,0.583338328,0.651593578,,,
,-156.4357554,-314.8901558,90.05143289,-0.745373598,0.649687156,0.723876147,,,
,-125.154437,-293.2930846,87.0170484,-0.901718451,0.820597757,0.932988685,,,
,-105.3603495,-294.7278855,89.75762013,-1.389853823,1.295707543,1.327490928,,,
,-125.9063869,-321.5802974,102.7497246,-1.674152803,1.902104689,1.520162589,,,
,-181.1420966,-328.5586942,127.5180598,-1.605654536,2.291283894,1.356124567,,,
,-233.4550914,-306.0125185,166.775982,-1.593688073,2.277186239,0.998255148,,,
,-259.2805337,-270.4891352,204.858424,-1.786484709,2.130420897,0.598154944,,,
,-269.5921125,-234.478394,222.3438354,-1.998074006,2.12716208,0.203428033,,,
,-275.98953,-193.6820228,207.2639301,-2.077083588,2.190920183,-0.271922834,,,
,-258.1283729,-153.2864356,177.9076926,-2.424015596,1.92860581,-0.793106932,,,
,-184.689794,-130.2091853,169.7233342,-3.288910703,1.452477268,-1.473911927,,,
,-68.83979047,-135.1421227,173.2270285,-3.907261672,1.299596432,-2.362586646,,,
,3.971571549,-55.90767466,116.6365027,-2.580154434,1.214444444,-2.720263099,,,
,44.14674189,169.5099075,20.64275263,-1.682598573,1.243401733,-2.322469215,,,
,19.39089714,295.6410084,-105.4682948,-1.94905739,1.198776555,-1.940256881,,,
,76.11280212,283.8157897,-179.4584601,-1.656197248,-0.245648012,1.185964016,,,
,88.91050203,221.6729019,-129.5701655,-0.452446483,0.583439348,2.492476147,,,
,111.0803018,294.5417315,-66.47954812,-1.048084404,0.547768502,1.392858104,,,
,165.0820323,264.576841,-2.447446518,-1.984927931,1.298349541,1.507410296,,,
,137.4623726,188.4388287,-1.977162759,-1.752300714,0.695627217,1.200879918,,,
,148.4708972,150.2224292,-16.44371683,-1.121102446,0.140349949,0.882246279,,,
,53.32466633,132.2604315,-23.10360636,-1.61417054,2.419820795,1.63796157,,,
,-0.678725804,104.4908861,-31.23066891,-0.707572783,1.415353619,0.970147401,,,
,-22.03710272,36.27665091,-23.4532825,-1.261987971,0.303092864,1.19826106,,,
,-7.785178633,13.91267577,-4.011220228,-0.561718552,0.702932926,0.977864832,,,
,1.241198472,7.913120109,0.725020794,-0.569751988,0.390717125,0.937016106,,,
,6.474193902,0.340852592,3.922583657,-0.366292864,0.526088073,0.878229766,,,
,9.646603918,2.602087827,1.919179431,-0.264675943,0.519653823,0.867349847,,,
,8.017111948,5.010974285,-1.270247432,-0.293681957,0.51530897,0.815921916,,,
,10.05454987,4.618383603,0.913867683,-0.397021509,0.409058206,0.846053619,,,
,13.83670157,4.384616823,2.245478895,-0.322192864,0.427340469,0.847492762,,,
,14.41848291,8.465050353,2.592634023,-0.284340571,0.451951682,0.836572681,,,
,15.5075038,10.66898981,3.039140033,-0.333177268,0.447462997,0.838454638,,,
,17.95019476,10.48701841,5.642087296,-0.363169317,0.416643323,0.853069929,,,
,20.37798883,9.127790634,8.031435893,-0.38363945,0.410550051,0.848860754,,,
,21.41756345,6.064414487,8.022669639,-0.3094684,0.48680051,0.82011264,,,
,15.66500989,5.26748749,3.003330171,-0.264433945,0.558519674,0.788910703,,,
,11.07584714,3.488969198,-2.4707659,-0.279322528,0.564834659,0.762833435,,,
,6.58540501,1.669083353,-5.940655603,-0.32034842,0.520168909,0.776118552,,,
,5.207326921,0.743240852,-6.482100719,-0.372430173,0.455462691,0.794280428,,,
,6.773048688,0.189419847,-4.460304548,-0.396124057,0.421539348,0.808746075,,,
,9.242267602,0.83571624,-3.033181272,-0.392957085,0.421553823,0.80245525,,,
,11.06759655,1.375958145,-3.263682193,-0.324444343,0.456011213,0.814952599,,,
,12.86714239,2.784460293,-5.132154858,-0.276408869,0.485906116,0.826353109,,,
,16.05634007,7.916385968,-10.0391373,-0.259128135,0.470381549,0.838365953,,,
,22.43570945,9.926665688,-15.18183458,-0.303374618,0.421002243,0.876589602,,,
,34.27742928,11.63121513,-21.28165786,-0.29553211,0.396278695,0.8810263,,,
,44.05873557,19.52244825,-26.79064706,-0.226033028,0.50882844,0.843905301,,,
,45.65069881,46.52990254,-26.20210482,-0.328686442,0.400119368,0.911328033,,,
,59.93722954,58.39660332,-26.27011491,-0.338849235,0.445711417,0.897657187,,,
,75.98090724,77.36689215,-22.14986081,-0.427921611,0.353415902,0.897952599,,,
,102.2352658,98.0866503,-16.02803595,-0.442194903,0.293227625,0.915261366,,,
,139.1325446,121.3357306,-17.05277097,-0.272075127,0.263456575,0.901996636,,,
,152.507786,155.8830803,-18.19553529,-0.291083384,0.272604995,0.945200714,,,
,185.5684821,185.5395477,-26.86845473,-0.17750581,0.424278797,0.92969368,,,
,216.5704835,222.6731716,-44.36188754,-0.052881448,0.505072579,0.883480428,,,
,254.2118626,260.4097763,-64.49493691,0.039849235,0.429009276,0.934075433,,,
,317.0610355,349.6128878,-97.16166724,0.307900714,0.351574414,0.801886137,,,
,395.8463993,456.5473816,-130.3591857,0.245244241,0.501717533,0.719657492,,,
,394.9042275,461.9232727,-142.2635298,-1.082399694,1.4682158,1.561789399,,,
,405.5957918,520.3624468,-145.9328088,-0.863091131,1.56510265,0.862051478,,,
,405.4718611,490.116234,-123.6608507,-2.345147808,2.043493374,0.976063914,,,
,430.5729129,411.1306787,-105.54679,-2.136469317,2.712375943,1.790360347,,,
,361.5368271,294.8959914,-120.0393563,-1.975319368,2.352160449,2.673685219,,,
,294.3093399,141.3691427,-85.09047782,-1.731861468,2.320766463,2.623765749,,,
,186.623813,29.38540103,-69.00210941,0.380965036,1.142064526,2.601272579,,,
,-67.07616908,-167.0903067,-0.879318328,-1.113489297,3.494049134,3.536202345,,,
,-173.4195423,-202.1709655,43.66918157,0.61703894,1.345185015,2.146217431,,,
,-222.4563644,-191.1610085,50.89354911,0.684279715,0.509879918,1.46988685,,,
,-213.666275,-196.9908541,59.76517031,0.325440979,0.136942915,1.244140775,,,
,-192.8236747,-217.5088165,71.18152627,0.017026911,0.180674516,1.143987156,,,
,-185.7992122,-254.7447706,77.45272122,-0.209417431,0.416854434,1.081207543,,,
,-198.0462996,-286.1004589,79.27850853,-0.322448318,0.633444037,1.009585321,,,
,-217.8034887,-306.2429048,83.85861856,-0.441826402,0.763700408,0.927833639,,,
,-239.6177681,-321.6593083,91.21774577,-0.543863099,0.823049643,0.817564118,,,
,-256.1954425,-325.1029566,98.00895722,-0.54119317,0.814236493,0.699332824,,,
,-260.7169962,-320.3370936,99.98657835,-0.533914883,0.76980367,0.61357421,,,
,-253.3508789,-310.5667308,102.2212856,-0.563930275,0.765144444,0.645342406,,,
,-242.498428,-305.561658,107.1523323,-0.653917737,0.876055759,0.7587684,,,
,-233.6606113,-304.4291496,116.8123434,-0.742388583,1.05929684,0.917386239,,,
,-234.6173936,-304.2531943,125.4173101,-0.895291539,1.349256779,1.05513945,,,
,-244.3393414,-303.6459736,135.59178,-0.97408104,1.55745209,1.135075637,,,
,-252.7288186,-299.3405969,145.1931203,-1.078059837,1.694092762,1.187462385,,,
,-248.6322277,-297.3988429,156.7535178,-1.333243833,1.755692151,1.214388583,,,
,-230.0536128,-303.385507,170.1556882,-1.693891947,1.80152528,1.211040775,,,
,-206.1128005,-312.4880302,178.8775382,-1.972264016,1.91543843,1.090129154,,,
,-195.697631,-314.2685538,178.8832105,-2.177678287,2.07607788,0.795079715,,,
,-199.6007341,-292.8761432,159.4134171,-2.09185107,2.195924567,0.247676147,,,
,-200.9486746,-241.4420084,112.9043702,-2.210792049,2.074469113,-0.374818349,,,
,-157.1018762,-212.0357518,74.41409685,-3.251659123,1.832157187,-1.14520999,,,
,-60.66620374,-227.0928534,44.55485973,-3.738813965,1.694184098,-2.203193986,,,
,40.16531547,-166.6972004,-3.891930415,-2.435182569,1.341987666,-2.703108155,,,
,92.60172533,-21.93534541,-54.67100256,-1.579873089,1.452780326,-2.088872273,,,
,90.74385238,80.23425943,-62.98244293,-1.740072681,1.939387462,-0.922168094,,,
,23.67765277,249.5057019,-8.622499155,-1.127800102,3.073213965,-0.985211315,,,
,-61.85491928,342.0462926,-79.3305904,0.013440673,0.612442813,-0.624275331,,,
,-8.114342886,284.7738325,-19.44148931,-0.176171865,-0.581333129,1.88069419,,,
,39.83976085,352.9107756,4.405071416,-0.438351478,-1.152496228,1.374074414,,,
,169.5725318,321.8495303,-18.17949247,-2.751358512,-0.667476962,1.819528644,,,
,184.1001631,213.8517988,-84.38253117,-3.352384913,0.044038838,1.800421713,,,
,170.0614939,155.5748863,-95.11546306,-0.848772375,1.464341284,0.77602212,,,
,70.68500104,224.8910912,-44.16181068,-0.389529969,3.518136799,1.100711927,,,
,5.46853838,168.7729119,-57.12005336,-1.115919572,0.485003364,1.116777166,,,
,-30.13546008,48.35557526,-41.36657878,-1.40011213,0.882772783,1.20254475,,,
,-38.88555694,37.82936654,-30.20776735,-0.799944546,0.693077676,1.120085831,,,
,-16.9328509,17.72307429,-17.32950958,-0.743144139,0.428027319,0.99856422,,,
,-6.710825471,6.039605414,-9.428593477,-0.383615189,0.5269158,0.877071662,,,
,-4.871287174,9.634800987,-9.739079306,-0.328466667,0.532172273,0.871160652,,,
,0.273358164,8.592590758,-6.949519689,-0.468756167,0.412257696,0.872569725,,,
,7.170566806,3.755681051,-1.084609106,-0.445112029,0.387559225,0.85799052,,,
,12.38402438,2.430143192,1.288811264,-0.366250051,0.43524159,0.832966157,,,
,12.62718766,5.471288577,2.598936559,-0.336333945,0.435136595,0.836947808,,,
,15.05412229,7.588023856,3.778198293,-0.358432824,0.390451376,0.840473496,,,
,19.99399251,6.627574704,4.559254359,-0.363143323,0.393568196,0.835923038,,,
,21.00257012,7.47664086,4.321075804,-0.284321916,0.451978287,0.829576453,,,
,19.12149238,9.089803532,1.895458978,-0.249496024,0.544571254,0.793984098,,,
,17.85187521,4.173653763,0.559894357,-0.337643833,0.523346177,0.765636595,,,
,16.73764418,-1.786883476,1.989538648,-0.372395107,0.489410601,0.792014067,,,
,14.60996541,-5.66701096,3.111275419,-0.383501325,0.456201121,0.811635372,,,
,12.38757671,-7.511075624,4.144833986,-0.399296432,0.419976249,0.816588583,,,
,12.28851231,-9.12377993,4.69527454,-0.394566667,0.403019674,0.80945158,,,
,13.49584898,-8.128380352,4.15468886,-0.351169317,0.455394903,0.795350255,,,
,11.59231129,-5.259637968,-0.324637887,-0.293668502,0.492216106,0.803439246,,,
,8.664955327,-1.087531191,-5.732901107,-0.283436595,0.489095005,0.804754536,,,
,9.449277253,4.067713867,-11.75399998,-0.267033945,0.459576147,0.846298267,,,
,13.37317871,8.700650598,-17.93873561,-0.259184709,0.454892559,0.854660754,,,
,23.13105103,10.86041501,-24.42364382,-0.281336493,0.403968502,0.876053823,,,
,35.09286281,16.97777079,-27.86087493,-0.293927727,0.420968807,0.877928848,,,
,34.56110068,40.11094177,-24.24132865,-0.290713354,0.471897655,0.870181957,,,
,54.36320963,48.69751647,-17.88441921,-0.421646381,0.381866157,0.916520999,,,
,69.98965946,70.20062252,-12.36637728,-0.448563507,0.296230785,0.941841386,,,
,95.64499066,90.84394811,-5.430608574,-0.434443323,0.263751784,0.95233843,,,
,124.075844,118.5972216,-8.333957609,-0.39879052,0.17961947,1.141028033,,,
,144.520697,145.7536449,-7.267511265,-0.264278186,0.433580122,0.986102854,,,
,178.9806133,173.9074158,-19.90145983,-0.145233333,0.455744546,0.946120591,,,
,205.1313811,207.8712653,-43.19758001,0.014792762,0.518658716,0.90839317,,,
,241.2623862,254.2355831,-64.91130534,-0.050012844,0.563211723,1.007900612,,,
,291.4971484,321.0677294,-97.63292502,0.296020795,0.30066789,0.810607951,,,
,368.851149,432.1390357,-132.3639077,0.22003629,0.38622314,0.685026606,,,
,395.4285985,491.6796639,-154.1950321,-0.764051682,1.305733435,1.442278797,,,
,394.8658393,489.8778262,-140.9026977,-0.628350153,1.237052192,0.737127013,,,
,403.8252377,508.3551994,-128.2264076,-2.337754842,2.030454332,1.153099694,,,
,441.2080409,455.4460421,-97.29843226,-1.912938838,2.063962997,1.336256371,,,
,373.7740024,344.084017,-113.2067773,-2.104474516,2.329024975,2.369541488,,,
,340.5903495,198.9297433,-89.84499619,-2.036290316,2.450482671,2.82917788,,,
,173.4453827,21.89649887,-61.35810758,0.582030275,0.861793374,2.716625178,,,
,44.86402775,-126.2675795,-15.62478826,-2.028503262,4.273166361,4.03897472,,,
,-143.7737319,-216.2485385,45.35516718,0.238960652,1.696001223,2.279895617,,,
,-200.3958277,-209.6462313,62.05723068,0.814387564,0.619120285,1.443814679,,,
,-191.0118103,-192.6094458,69.35029586,0.497422834,0.059811825,1.107923751,,,
,-159.1833745,-197.051473,81.54535876,0.188896024,-0.04376473,1.002820387,,,
,-143.5246099,-219.9397045,88.35605077,-0.088144954,0.179963099,1.008797146,,,
,-151.0571141,-246.8810395,85.24557749,-0.232834862,0.440335678,1.010273598,,,
,-175.5393142,-262.51362,80.43571139,-0.320833435,0.597287054,0.983048726,,,
,-200.2861062,-276.3590878,82.21841228,-0.481369113,0.69116422,0.966682059,,,
,-223.7624216,-291.9451441,87.19174323,-0.629284098,0.773476045,0.939122528,,,
,-242.3531259,-308.5910005,93.14494661,-0.712499286,0.844981448,0.862649949,,,
,-254.5407404,-316.5888037,96.5648171,-0.680769011,0.83134577,0.772507543,,,
,-255.8471987,-315.4957148,97.22245806,-0.657890316,0.832875229,0.757997146,,,
,-250.5992491,-311.4206098,99.4428987,-0.701264424,0.922287462,0.808909786,,,
,-242.1614715,-308.0609572,103.6554563,-0.748656677,1.010055963,0.889449032,,,
,-225.4908061,-297.9798221,105.4666332,-0.845062895,1.133143731,1.051239348,,,
,-206.2043592,-298.4016336,108.4844592,-1.08723262,1.367509888,1.274092661,,,
,-191.7536761,-312.76093,107.8510543,-1.382705199,1.815025382,1.471371967,,,
,-197.1061332,-337.205143,112.4325968,-1.790227421,2.263691641,1.45511213,,,
,-197.9950199,-371.5259452,140.8295883,-2.116328338,2.333510194,1.203057288,,,
,-192.0885699,-379.5480419,162.6122405,-2.240341488,2.281680428,0.733170234,,,
,-177.3136499,-368.0589776,180.55407,-2.376101733,2.220735576,0.235549439,,,
,-170.8003803,-328.1157978,180.5027903,-2.383753925,2.277260245,-0.421781549,,,
,-167.9203507,-253.437281,162.2791801,-2.707559633,2.235979918,-1.275754944,,,
,-139.7548341,-179.2760304,158.8528352,-3.84359419,2.113131804,-2.350785933,,,
,-76.32170254,-129.2439806,138.5174171,-3.459130989,1.669141284,-3.137744241,,,
,9.328211271,11.3818639,56.23769835,-2.079386442,0.906163507,-2.777368094,,,
,70.69519969,123.6362135,1.795134068,-1.692512844,0.94627686,-1.060450663,,,
,5.078010347,315.5082626,-24.3574672,-1.722156065,1.890159939,-0.568213252,,,
,-16.69387021,326.033039,-109.1692583,-1.519734047,0.923314067,1.183586239,,,
,4.180701144,278.8381043,-94.20314237,0.070735576,-0.522528338,2.043082059,,,
,69.63522777,320.1598205,-68.63558831,-1.01011998,-1.386540673,1.302700917,,,
,157.7698877,283.4945323,-61.95077512,-2.753323547,0.528351274,1.758173496,,,
,145.8166702,187.3176649,-61.18054796,-2.021299694,0.899182263,1.433612538,,,
,151.5596554,172.2480728,-34.10571383,-0.375949643,1.115123853,0.553126707,,,
,73.60817442,230.440302,-34.01341032,-1.374166871,2.399914679,1.410136188,,,
,20.76954819,138.0132143,-56.07228544,-1.354438736,0.913445973,1.214000612,,,
,-33.99507568,55.5405806,-32.94822449,-1.294771356,0.755838328,1.233319572,,,
,-16.53367121,23.81762636,-14.44237525,-0.77801947,0.508704689,1.10834261,,,
,-8.235466164,14.22023952,-7.371102034,-0.605960856,0.458647401,0.951966361,,,
,-4.577818192,7.813368156,-4.549170302,-0.400925994,0.550871865,0.879067788,,,
,-1.504759057,6.662525129,-3.339484509,-0.361654842,0.505918858,0.904513558,,,
,0.948302447,6.761131166,-4.949839688,-0.364641896,0.498457288,0.840826504,,,
,-0.604585065,5.104652884,-6.065445811,-0.381165443,0.453844648,0.820905403,,,
,0.869807229,5.495295509,-6.252459235,-0.330029562,0.4443684,0.83837686,,,
,3.535321483,8.095206096,-5.735765895,-0.290662487,0.446546993,0.842924873,,,
,3.547525484,9.93709352,-5.464069309,-0.284326809,0.45351213,0.831911519,,,
,6.313765719,9.449850211,-4.555186359,-0.341089908,0.404290928,0.838550561,,,
,9.621622958,9.167840384,-1.786768884,-0.363971764,0.379644954,0.846797248,,,
,12.29762234,8.462815817,0.456532771,-0.339478491,0.412812436,0.82764791,,,
,12.46303526,6.489205396,-0.737855049,-0.314215902,0.453655556,0.817824057,,,
,8.529336217,6.303223296,-3.928599714,-0.282583078,0.498431702,0.782988277,,,
,6.255610503,6.984756593,-8.581933743,-0.282514169,0.501611723,0.758118552,,,
,4.352244708,4.729594711,-9.444407112,-0.353443731,0.486344139,0.772142915,,,
,3.741758177,4.610877856,-9.922483096,-0.337831906,0.423695413,0.804312029,,,
,7.126219873,4.43326094,-8.69532209,-0.366285321,0.391278186,0.832103568,,,
,12.33715643,3.390878823,-7.14105948,-0.355311927,0.399644954,0.85441213,,,
,15.09033323,2.737649641,-6.439529955,-0.326969929,0.434984811,0.869381651,,,
,16.82748396,2.116735278,-8.269156082,-0.33005525,0.462821407,0.853960041,,,
,18.05114993,6.623793182,-12.13077703,-0.29230316,0.430279511,0.862363507,,,
,22.52153853,15.13468016,-14.83061146,-0.337248012,0.405683078,0.874999898,,,
,36.01458002,15.98724136,-17.15641903,-0.416928644,0.357958614,0.91170265,,,
,50.47935792,22.06832892,-16.34379299,-0.323778593,0.461227829,0.862364322,,,
,62.48883979,46.87075513,-5.292697633,-0.527391131,0.267087156,0.959905301,,,
,79.17182379,67.28518408,-1.721566287,-0.432808155,0.310057085,0.944618552,,,
,103.6156357,88.28706665,0.160313591,-0.419470133,0.264491335,0.948889195,,,
,120.6193615,114.6451879,-4.816111339,-0.230268196,0.241855861,0.869908257,,,
,145.4936939,141.9320164,-8.731074657,-0.22021213,0.367911417,0.97875107,,,
,177.1392989,169.6600224,-27.21314614,-0.071964322,0.482527931,0.94450265,,,
,207.2510385,206.0514941,-49.1492364,0.002141998,0.480104791,0.914824669,,,
,240.3938395,256.8438588,-71.43546116,-0.094104791,0.486318756,0.979217023,,,
,288.2680729,322.9600371,-96.42025985,0.224527931,0.335028746,0.756337819,,,
,356.9060676,433.7969464,-129.5298293,0.245380734,0.447984098,0.65114475,,,
,362.1361409,477.3268992,-148.0655296,-0.901275841,1.368273904,1.534144648,,,
,372.7940154,492.9220083,-137.1710809,-0.645774516,1.236963609,0.774058308,,,
,381.8503582,520.2151966,-134.0462837,-2.209964424,2.085838022,1.092772681,,,
,421.1540597,474.5681075,-103.9103079,-1.934941386,1.967027829,1.28681947,,,
,371.7041351,353.5801049,-112.5442089,-2.092001121,2.365784811,2.429183078,,,
,332.4765796,192.0336232,-86.70937007,-2.096073191,2.520869725,2.825237309,,,
,182.5999877,20.39781317,-56.20108635,0.470755454,0.812490826,2.787470133,,,
,32.0180848,-137.1270204,-6.810863902,-1.797853925,4.117478389,4.027192864,,,
,-129.8548682,-203.1345086,46.75536143,0.450015392,1.57209317,2.242970948,,,
,-180.6573743,-184.3174287,58.45521691,0.848940877,0.571110398,1.465475331,,,
,-172.5124355,-170.8129281,68.13499508,0.430253313,0.127482263,1.21530367,,,
,-149.5196965,-187.1663468,81.10108728,0.075151172,0.092453619,1.173582263,,,
,-143.7918374,-224.5429048,90.90261899,-0.199487971,0.306215291,1.16160632,,,
,-158.6245115,-259.7045798,91.22181377,-0.318862997,0.491174618,1.096285423,,,
,-180.3177249,-283.8597356,91.10722222,-0.38549419,0.539583384,0.995292559,,,
,-198.1213571,-296.0912386,91.60071076,-0.486052497,0.555647197,0.907446993,,,
,-211.0272314,-306.087003,92.3903612,-0.630742202,0.616485423,0.844792253,,,
,-223.4038647,-316.8424521,91.89251817,-0.71873262,0.687933537,0.7870842,,,
,-229.7984174,-323.2874825,91.85877095,-0.702865036,0.709624159,0.750230683,,,
,-229.6568396,-322.4012314,90.94421572,-0.701360143,0.751120999,0.789921101,,,
,-226.6367217,-321.1046852,96.87289651,-0.796013048,0.891407339,0.890296534,,,
,-223.0088103,-323.8041185,103.703642,-0.904825892,0.997861162,0.973827319,,,
,-214.9077027,-325.3226859,107.8837702,-1.037137003,1.129991947,1.017523344,,,
,-202.0014846,-323.6617385,110.1483859,-1.122174516,1.302842304,1.066439857,,,
,-191.5224303,-317.415811,111.9168202,-1.31041213,1.609236799,1.170051274,,,
,-192.794282,-319.0984735,123.970076,-1.626057594,2.02797156,1.244139755,,,
,-206.4130304,-322.8726611,145.9107499,-1.902721611,2.376272783,1.148522324,,,
,-220.1995409,-319.5148419,171.024636,-2.145946279,2.486167176,0.840243731,,,
,-223.1578366,-307.6197224,186.8728778,-2.254818858,2.417596534,0.298464832,,,
,-217.1269974,-274.6326514,179.1441355,-2.256144241,2.373217227,-0.401183384,,,
,-192.1210566,-229.2228813,159.3404796,-2.602624669,2.160083078,-1.076191641,,,
,-128.3725118,-193.0568113,160.2259285,-3.360268094,1.798631295,-1.774763812,,,
,-33.74807357,-166.9930758,168.927324,-3.553855861,1.458848216,-2.531238226,,,
,37.6641828,-68.68159682,108.6966828,-2.243292762,1.208514679,-2.64400367,,,
,67.76303088,75.10726119,29.45295275,-1.897660754,1.275601223,-1.697198573,,,
,61.05925279,110.5024738,-2.278996926,-1.539168196,1.508715291,-0.203125484,,,
,-57.01462912,247.0518955,-38.39579261,-0.552656371,0.903311009,0.004840877,,,
,-69.42237395,294.6089395,-114.5500769,-0.10279684,0.439009174,1.862362691,,,
,-3.086466347,329.1762854,-71.78204333,0.046268705,-1.054523445,1.596414679,,,
,133.2432833,336.1264927,-62.85874134,-1.783183384,-0.733563507,1.397004281,,,
,136.7529363,271.5277931,-71.99415231,-3.047576147,1.036573496,1.81251631,,,
,165.470555,170.4657157,-30.54695837,-1.096034455,1.010996942,0.916026504,,,
,162.2442297,187.4591282,-2.317843464,-0.652949032,0.904046585,0.699724465,,,
,67.36488251,196.8531723,-40.16302364,-2.22337737,1.712667992,1.869671967,,,
,11.39859426,112.5363594,-42.62977883,-1.299029052,1.52846524,1.305665341,,,
,-29.8922395,48.43573206,-24.08393714,-1.005102141,0.580647401,1.232591131,,,
,-9.281858985,15.50893619,-7.110692716,-0.692766361,0.497176758,1.030198573,,,
,3.395634373,4.526423877,0.316501886,-0.501976962,0.449901121,0.938696024,,,
,4.831065537,3.785474857,0.018563833,-0.276412742,0.61532844,0.869359327,,,
,5.195982357,6.13523207,-3.199797398,-0.339445464,0.519945872,0.849621916,,,
,7.572496699,3.342750368,-1.184647537,-0.435665953,0.406014271,0.865584506,,,
,15.36535297,0.03380451,3.161810297,-0.410484913,0.387419776,0.867306014,,,
,18.32141412,0.707144511,3.97902,-0.343411315,0.450581142,0.837916718,,,
,18.21621907,2.830468804,3.530222159,-0.302385831,0.475215698,0.818373904,,,
,17.3157013,4.06685443,3.886200837,-0.304762181,0.456713354,0.817614475,,,
,17.44891399,4.971268309,5.179538468,-0.30716371,0.442797655,0.827747197,,,
,16.62901138,5.624612083,4.814220578,-0.295315698,0.465924159,0.822081142,,,
,14.23656881,4.043076681,2.767042376,-0.281044954,0.523027115,0.804766361,,,
,8.440470463,2.593951826,-2.00145617,-0.271511621,0.551622018,0.782839959,,,
,3.372887948,2.219867681,-6.547303317,-0.295140469,0.530888277,0.77711947,,,
,0.894100639,-0.515318241,-8.093773701,-0.331400408,0.492429867,0.777093578,,,
,-0.08199026,-0.891407738,-8.831800637,-0.344075535,0.456922834,0.793636799,,,
,1.162875141,-0.863619285,-7.736706403,-0.342562691,0.432176147,0.809100408,,,
,3.541222949,-1.301187153,-8.327712369,-0.315839144,0.41661213,0.824007136,,,
,5.686376934,1.682777044,-8.535466866,-0.251296534,0.442560754,0.845906116,,,
,9.212817571,7.176869342,-11.68134894,-0.267053007,0.468793782,0.856421916,,,
,12.52038833,14.45979317,-16.26025575,-0.271015596,0.449509888,0.859583894,,,
,17.2831,16.99415739,-17.87043904,-0.309611009,0.433439042,0.856545668,,,
,30.12130802,19.0167557,-20.14977974,-0.333378186,0.371676351,0.889614271,,,
,44.30499283,24.9778659,-21.7590463,-0.34600683,0.376296738,0.90157105,,,
,47.01485402,51.7788835,-14.3657135,-0.328625994,0.422547401,0.895824057,,,
,72.52064323,60.7170251,-7.314780283,-0.384707441,0.348519674,0.934269317,,,
,94.50394521,85.08274289,-2.456900321,-0.439185321,0.259119776,0.957101427,,,
,123.7929174,110.1883211,2.411693951,-0.457989297,0.301687258,0.934293782,,,
,143.9389157,134.0743013,-2.855621651,-0.224849643,0.242474924,0.905542813,,,
,174.6130707,162.3813385,-10.89679783,-0.1018684,0.50653262,0.943676758,,,
,203.574884,194.7888054,-33.28953545,-0.007271967,0.543358512,0.921381753,,,
,236.2112476,233.2803965,-51.56287841,-0.066326911,0.589775433,0.932146789,,,
,274.4060466,286.1491604,-72.92664112,0.14083476,0.345760041,0.839885933,,,
,342.8356565,376.5596086,-101.1692778,0.185296942,0.302998777,0.691096942,,,
,415.8076186,474.1368421,-117.7507337,0.096979205,0.537305097,0.808613048,,,
,399.012163,455.4089144,-109.4864478,-1.231256473,1.477477778,1.272927523,,,
,423.1956229,507.575805,-97.92387299,-1.918303364,1.989105505,1.552328236,,,
,424.6585561,467.2583692,-90.54182746,-1.965094903,1.928986646,0.768180122,,,
,423.6993674,393.7079489,-77.9661487,-2.077675025,2.656341896,1.8744158,,,
,385.3954199,257.3079546,-81.26804718,-2.228675739,2.319769827,2.871397044,,,
,268.3575603,81.7307679,-63.31853997,-1.647965851,2.592292151,2.554757288,,,
,180.4080231,-6.063841529,-72.14592883,0.032390214,1.452895923,2.881114067,,,
,-116.9546662,-192.6002212,-29.51798346,-0.946180734,3.030263609,3.256307441,,,
,-160.0279716,-213.0478244,-3.927339207,0.639245668,0.907751376,1.947414577,,,
,-177.7747091,-197.5451907,7.072820206,0.660935678,0.317753007,1.302141081,,,
,-162.8236046,-202.2680246,24.49268523,0.253140979,0.235992049,1.217999388,,,
,-158.6588317,-225.1921805,42.04077822,0.001437309,0.391272477,1.150973394,,,
,-167.9662446,-254.3235894,53.58599238,-0.105237513,0.531652803,1.033972273,,,
,-184.3099803,-274.3903475,61.08818716,-0.207314271,0.60712314,0.943945668,,,
,-198.6604531,-287.041714,69.807287,-0.322013558,0.687222834,0.863543833,,,
,-213.3669046,-299.7221295,80.69050572,-0.539275331,0.816675739,0.867195821,,,
,-232.0245303,-317.6999408,91.21700093,-0.699785933,0.935241692,0.849322222,,,
,-249.9240756,-334.0569118,98.66218641,-0.685366055,0.948644648,0.761959429,,,
,-253.9996963,-334.5435249,103.9940744,-0.623030377,0.892389297,0.699019572,,,
,-247.8696782,-328.2415048,109.2212256,-0.645910092,0.926297146,0.725259225,,,
,-241.3851137,-323.728087,117.5337546,-0.712165647,1.055007747,0.804754128,,,
,-232.5455209,-316.9780713,126.0028157,-0.793468705,1.236800917,0.93289001,,,
,-226.5867598,-309.9630625,137.6350621,-0.971009072,1.518810805,1.152031091,,,
,-234.2580917,-312.1763412,152.2042902,-1.139662589,1.902807645,1.319865851,,,
,-251.9086296,-312.2457836,168.8651008,-1.308002141,2.276467278,1.366410601,,,
,-265.1751235,-311.7933762,195.6580397,-1.704711825,2.23944159,1.274330479,,,
,-251.5798091,-318.4899923,218.281622,-2.019181855,2.113281753,1.027845464,,,
,-226.8491745,-324.0797112,228.2216949,-2.358574312,2.090830071,0.709840571,,,
,-209.158415,-315.200527,211.2746919,-2.426317431,2.171848114,0.149538328,,,
,-196.2782665,-275.0964034,158.4052978,-2.595843629,2.101486646,-0.683912334,,,
,-144.701236,-230.1690638,112.3460801,-3.911492457,1.808840673,-1.793269623,,,
,-44.69924509,-234.1122167,78.9518653,-4.073740979,1.704417431,-3.004732314,,,
,37.97993984,-103.3427932,-12.39737429,-2.171097554,1.295696432,-3.110318756,,,
,70.10957953,72.4653528,-94.10000996,-1.675110398,1.475130581,-1.806820591,,,
,54.04063439,138.4371457,-98.19906462,-2.015497961,1.994921203,-0.09803527,,,
,-56.41090349,272.444411,-75.61604772,-1.130408155,1.964017023,0.229966463,,,
,-56.15903125,299.2047486,-95.32791581,-0.438326606,1.112826707,1.204387258,,,
,-0.185752917,312.8221792,-32.67967917,0.575007951,-0.484458716,1.372489093,,,
,101.4878424,334.620645,-17.64635524,-1.214800408,-1.675482467,1.179320693,,,
,161.6610732,293.2337835,-54.87961649,-3.034308563,0.2879421,1.91335525,,,
,165.4749095,176.2276084,-85.42136094,-2.264372987,0.66806106,1.550636493,,,
,154.8475164,168.29369,-46.46384051,-0.377410296,1.401111927,0.601913863,,,
,116.6118655,219.4536644,-12.3239784,-0.721318654,2.229556779,1.069997248,,,
,33.52404707,134.707878,-55.73825104,-1.233185627,0.721980836,1.163444648,,,
,-30.91359406,65.8037444,-36.94901688,-1.297487768,1.366627217,1.266447299,,,
,-27.24826845,30.28460099,-24.25210026,-0.896285117,0.486526198,1.15141631,,,
,-12.41376089,12.52594602,-9.906325686,-0.586253007,0.531033741,0.967982569,,,
,-4.058718429,7.936611378,-6.912048249,-0.352967278,0.524417533,0.901242406,,,
,0.38405361,10.53486039,-6.418502404,-0.360013761,0.529890928,0.887421916,,,
,5.515864694,8.871334725,-3.842942524,-0.441949235,0.416843221,0.862639653,,,
,10.55256478,4.044394484,0.454756602,-0.421441386,0.401418858,0.845818145,,,
,16.4971165,2.029359215,3.654668592,-0.372602039,0.408992966,0.8439421,,,
,17.46444114,4.008756509,3.682743524,-0.30477788,0.467476656,0.826963812,,,
,18.35739587,5.305589183,4.525965511,-0.330839348,0.418145158,0.838343935,,,
,23.68762224,3.787365617,7.106739308,-0.34111264,0.404258308,0.847101529,,,
,26.48703673,4.701118709,7.360101245,-0.318999592,0.455897554,0.840479918,,,
,25.06111666,3.679878735,5.483549874,-0.268427115,0.527636188,0.799823853,,,
,19.36345246,1.720191188,0.610715714,-0.284098267,0.544746177,0.775340163,,,
,14.42129041,0.267800473,-2.502851536,-0.302258716,0.520080632,0.785033843,,,
,11.01740544,1.548934103,-5.885766246,-0.307893782,0.469075841,0.814600815,,,
,9.797119931,2.151743,-6.360920146,-0.343395923,0.432113354,0.826220387,,,
,11.65516476,5.017907074,-5.747053164,-0.367822936,0.415989297,0.8259684,,,
,17.36199629,6.58758225,-5.39875212,-0.369383996,0.422947808,0.822908359,,,
,20.79447185,8.407639982,-7.033973668,-0.347319674,0.453716412,0.82790683,,,
,26.2336175,8.398472657,-9.994962257,-0.35526738,0.422820693,0.845128644,,,
,36.02437759,7.747936376,-13.41345765,-0.331611723,0.445903874,0.841525178,,,
,42.38535504,12.46750433,-16.425153,-0.266912538,0.524463405,0.821548114,,,
,40.89612313,29.68981351,-14.82241816,-0.381351274,0.410436595,0.876792049,,,
,50.03674802,38.50792045,-11.90061988,-0.371798675,0.456778186,0.85334526,,,
,63.11628587,55.48998843,-8.043181528,-0.419948114,0.395134149,0.874532722,,,
,79.28458189,72.2305547,-4.818575057,-0.402005505,0.336284913,0.919870642,,,
,102.4743611,93.43961881,-1.554434498,-0.434181753,0.371981957,0.888803772,,,
,132.0082155,115.9228265,-5.255054305,-0.335094393,0.31292895,0.923740673,,,
,143.6023603,142.8340238,-6.483246635,-0.295617023,0.335295515,0.893346075,,,
,171.8714103,164.7844953,-16.25630234,-0.177255352,0.519396228,0.866133537,,,
,195.8003624,195.0088785,-32.50870856,-0.112522426,0.584136697,0.829027523,,,
,221.5090359,225.3086056,-49.21014181,-0.000647095,0.539950968,0.79840683,,,
,267.0351737,286.3178391,-75.28103929,0.059891539,0.366282059,0.781140163,,,
,332.3403302,368.9861952,-100.3371712,0.150641692,0.360107849,0.710654638,,,
,384.7330234,449.397785,-115.1290507,-0.267178593,0.944724159,1.056351274,,,
,362.0998154,442.3797969,-126.0719144,-0.835261876,1.289237513,0.969702446,,,
,385.1488189,493.8798218,-117.267673,-1.968728135,1.964572477,1.552652497,,,
,400.3172463,465.1517753,-108.194829,-1.716185321,1.820448522,0.716430683,,,
,403.3060233,394.711198,-87.49604112,-2.131396738,2.588466157,1.915928644,,,
,385.4654354,240.403236,-72.12123435,-2.437750357,2.3649,2.730892457,,,
,256.8251231,54.19785401,-56.76327254,-1.87900897,2.836370846,2.447013252,,,
,156.7495071,-12.15529962,-72.99677116,0.604699185,1.00744526,2.531390316,,,
,-127.7718228,-196.2386178,-34.37460292,-1.252048624,3.426324873,3.200315494,,,
,-171.0051554,-211.8922831,-8.270244702,0.468104485,0.912124159,1.744556779,,,
,-184.1268057,-193.4637832,-0.289802053,0.740321305,0.275275433,1.051504383,,,
,-161.4941706,-182.8861229,15.50228988,0.313445056,0.187150255,1.033080428,,,
,-148.7073569,-199.5624033,35.17788975,0.00481366,0.403912538,1.070079409,,,
,-155.2725938,-235.1324253,52.99034546,-0.161194393,0.589541896,1.06800897,,,
,-172.4792039,-262.7356984,70.50056593,-0.242101223,0.687156371,1.020295821,,,
,-192.8006991,-276.7755135,86.52361715,-0.295322834,0.710902446,0.903402446,,,
,-209.7933095,-285.5256104,99.24402505,-0.432159327,0.72546106,0.834259531,,,
,-223.2559843,-299.0152714,105.7034939,-0.598350561,0.732095209,0.843502752,,,
,-231.0161246,-313.8918914,107.6975017,-0.681057492,0.706128338,0.840673598,,,
,-231.8089263,-328.6416585,104.7959861,-0.698298267,0.676256371,0.799032722,,,
,-225.599267,-338.0850343,99.77028678,-0.707707238,0.677114475,0.783702345,,,
,-212.583614,-342.8660806,93.22676499,-0.685626707,0.685564526,0.775442304,,,
,-187.6260881,-340.7384018,87.22256836,-0.772278084,0.783635066,0.814921305,,,
,-161.784431,-329.2072824,85.67947843,-0.843063914,0.976581855,0.841787156,,,
,-137.6619911,-308.9185604,87.47214878,-0.863612742,1.253114475,0.957840877,,,
,-128.3503383,-295.004796,103.0441676,-1.227775943,1.866223751,1.27360897,,,
,-160.2270172,-298.4110874,139.9205908,-1.569377676,2.396021407,1.371049032,,,
,-202.9496724,-300.381432,184.2299954,-1.737181244,2.474611111,1.121620897,,,
,-227.2375253,-286.6208192,215.419354,-1.870047808,2.228393476,0.660883078,,,
,-230.6203254,-259.2365306,230.0389451,-2.014059327,2.083731804,0.277553211,,,
,-232.308832,-221.0165214,219.5853301,-2.120060041,2.211207441,-0.096782671,,,
,-235.1905805,-177.593769,187.3486619,-2.315745158,2.168059429,-0.56190948,,,
,-201.22633,-146.9452825,160.0513483,-2.881406728,1.803464322,-1.194128338,,,
,-106.2049466,-135.912751,158.2472761,-3.709576453,1.414223955,-2.034174618,,,
,2.452946913,-117.5854354,128.8128872,-2.964996636,1.185578695,-2.5343158,,,
,63.43823085,2.648783887,56.90273047,-1.817779715,1.13907156,-2.164126707,,,
,70.97778248,99.48953746,-2.651935155,-1.988472477,1.43582579,-0.962575331,,,
,61.07495183,215.9659557,-26.7289968,-1.665830071,1.846308461,-0.440547401,,,
,13.82604455,213.2060753,-111.798619,0.147098063,0.64182263,0.061443935,,,
,-24.64228452,250.0813526,-151.5358777,0.805998879,-0.508632926,1.866217431,,,
,41.35013489,315.5091794,-92.83050738,-0.507172681,-1.090737105,1.2125263,,,
,146.5605986,296.0868841,-65.2335941,-2.333114169,0.376732722,1.541528338,,,
,137.2330749,222.8315944,-72.05454206,-2.333724669,0.999474414,1.674906218,,,
,158.9388934,164.1412356,-29.66918703,-0.959632314,0.961506524,0.841306014,,,
,133.5935897,180.1764336,-15.20303402,-0.513339959,1.947060856,0.95432263,,,
,37.99260221,118.264906,-41.29925624,-0.98229368,1.010007339,1.085997248,,,
,-10.89358926,84.76423565,-37.60872049,-1.370818145,1.277353415,1.271053619,,,
,-26.04660407,39.0000339,-27.49486949,-1.003410296,0.613166361,1.199191335,,,
,-16.79350757,15.23529155,-8.705635331,-0.693407951,0.508173089,0.978931397,,,
,-3.478197591,4.949381322,0.071333245,-0.459329358,0.490776555,0.906710703,,,
,3.451612349,4.756523728,1.648800647,-0.29226524,0.550516718,0.886695005,,,
,6.308895578,6.733686487,1.346508114,-0.405676351,0.475350561,0.864259123,,,
,10.38170877,2.965801435,5.074687191,-0.443528746,0.421464016,0.865793986,,,
,17.10468095,0.757622093,8.743049475,-0.407396636,0.370373089,0.885080632,,,
,18.74672069,3.119526011,9.659094398,-0.334773394,0.452060143,0.847827931,,,
,20.27101761,4.785744575,9.333711666,-0.333935066,0.460604689,0.831501733,,,
,23.10458038,3.081768093,8.894940586,-0.344214271,0.425138124,0.835553313,,,
,26.91268707,2.232472753,11.56182994,-0.33477105,0.415854434,0.835319776,,,
,29.14240963,1.409476176,11.63734578,-0.298507441,0.448925382,0.83222579,,,
,26.17059214,2.250807402,10.52494822,-0.271650051,0.498266361,0.817718247,,,
,20.11855354,4.043248569,5.212197062,-0.2171263,0.56616055,0.770745973,,,
,14.1674701,5.769112039,-0.716311835,-0.233617737,0.573981244,0.755590724,,,
,7.602233209,5.290004731,-3.944929011,-0.288787971,0.547892661,0.763016106,,,
,4.732173022,3.074835303,-5.185439933,-0.347197757,0.475461876,0.789080326,,,
,5.743386234,1.315052731,-2.717596118,-0.385097452,0.431522834,0.811623547,,,
,9.165892328,-0.128686321,-1.240109852,-0.374816922,0.466220999,0.806793068,,,
,11.51026374,-0.23445433,-0.954490391,-0.337845668,0.466048114,0.823050968,,,
,13.71489074,0.062624287,-2.61847442,-0.326795923,0.481457492,0.81894261,,,
,14.43973965,3.030717553,-5.261586024,-0.281101121,0.498293884,0.817933741,,,
,15.27471104,6.771902772,-7.689093611,-0.266901937,0.517544954,0.8153158,,,
,16.3545073,10.94177501,-11.08925435,-0.280340979,0.478222018,0.821763812,,,
,21.32159302,17.99734919,-14.41905587,-0.267146483,0.40009419,0.869504077,,,
,45.6128263,22.51500681,-21.71848089,-0.194853007,0.395795617,0.928478797,,,
,50.99925982,48.00910768,-26.53390468,-0.010061468,0.627086646,0.812783792,,,
,68.61375861,69.06822874,-22.77787985,-0.418624873,0.37628002,0.963080632,,,
,89.3438873,94.32638559,-18.95246983,-0.445275127,0.390407849,0.920185729,,,
,118.8743612,114.4461996,-12.07537201,-0.486464628,0.236111315,0.959688991,,,
,144.9144336,134.0745305,-15.95710378,-0.217007747,0.214669011,0.909196228,,,
,174.2611027,167.6465914,-20.57514361,-0.220033537,0.449058919,0.937707645,,,
,204.9802922,200.7627498,-36.05027529,-0.05377788,0.5280316,0.931739857,,,
,240.7470106,244.2591846,-51.67890236,-0.070377064,0.506423038,0.947622528,,,
,290.6543275,308.0530504,-74.23447459,0.150366565,0.304245872,0.796057187,,,
,365.0992495,402.4179387,-105.3915184,0.242690316,0.422870234,0.766200815,,,
,409.0713538,477.448882,-122.3268903,-0.376630071,1.135010296,1.406682875,,,
,383.578227,480.061856,-133.4717789,-0.655265545,1.219214781,0.78356789,,,
,413.0540981,476.8032158,-103.7846583,-2.144710703,1.976497757,1.395781957,,,
,420.8033522,454.0785064,-99.21841383,-1.664962691,1.746025484,0.976298063,,,
,376.9798158,343.4811508,-97.77490396,-2.069458002,2.60216473,2.320306422,,,
,348.1282396,211.4936764,-81.16113326,-1.995188583,2.467522222,2.778525382,,,
,195.2446506,39.30267021,-54.11099361,-0.076824159,1.354619266,3.049759021,,,
,105.6395518,-69.30680836,-55.28847917,-1.844433843,3.610527931,3.907554638,,,
,-121.7480884,-205.7608326,-4.470961563,-0.182908359,1.716535066,2.48621682,,,
,-172.2933364,-217.2184415,11.12334534,0.713139857,0.620332314,1.610140775,,,
,-175.5422936,-199.2287699,18.24738797,0.535204383,0.135168603,1.139857492,,,
,-159.1335845,-194.3131931,30.09225906,0.313392049,0.049172171,1.008714577,,,
,-152.6570988,-203.0139583,36.88421536,0.067875229,0.277460041,1.007762895,,,
,-162.0439809,-227.8042951,42.09709997,-0.158857492,0.49088634,1.045997452,,,
,-181.3748894,-256.0141586,49.30296098,-0.355637105,0.679607747,1.066399694,,,
,-204.2572194,-284.4403137,62.41464175,-0.5003684,0.788922018,1.034933741,,,
,-226.6878296,-310.5160241,77.49987565,-0.615070846,0.850527319,0.949831804,,,
,-244.1139398,-327.9499266,86.3301293,-0.598957594,0.832507747,0.807956167,,,
,-250.7719959,-330.6568657,90.27219352,-0.547556677,0.752532824,0.703243731,,,
,-243.1114929,-327.8024472,91.17179456,-0.581471356,0.734843425,0.71641947,,,
,-231.3981729,-324.3299792,91.01193933,-0.680866972,0.828124363,0.808260449,,,
,-218.4537385,-327.3054063,93.39154765,-0.745590316,0.974488277,0.90951998,,,
,-205.1542422,-321.678044,94.04557897,-0.770000102,1.197984506,0.979695719,,,
,-193.1532974,-312.2195995,99.8596109,-0.851279613,1.468407747,1.127437717,,,
,-187.2522331,-304.5848223,114.8043556,-1.062403772,1.956617941,1.307327217,,,
,-201.5148715,-307.1683463,142.3680946,-1.389766565,2.545013761,1.399893374,,,
,-224.4096348,-311.644579,191.0622879,-1.946212232,2.50403894,1.255479918,,,
,-225.169033,-322.5783899,241.9305123,-2.049291743,2.388500815,0.889152294,,,
,-220.7690036,-306.9193388,268.2994624,-2.288474312,2.262788787,0.466053823,,,
,-222.0147858,-270.2631033,261.6365935,-2.283689602,2.337531498,-0.123897859,,,
,-231.6558893,-206.1517617,207.1456143,-2.394344343,2.26055209,-0.886412538,,,
,-194.8536069,-146.2584207,150.6244737,-3.41068736,1.77333578,-1.776773191,,,
,-69.03196051,-176.8679461,111.5967659,-4.195537207,1.513400306,-2.577133129,,,
,50.7402256,-127.9304749,47.19109584,-2.507629969,1.101848624,-2.782768196,,,
,108.5830079,16.09959838,-27.84299865,-1.585135576,1.307961774,-1.933570948,,,
,101.4614863,97.95120308,-51.99339889,-1.959887258,1.921842712,-0.598488175,,,
,16.65221617,243.4685602,-27.2653426,-0.80306157,2.290010499,-0.154638022,,,
,-21.2961537,265.9451215,-69.70008659,0.185288685,0.866095107,0.283326911,,,
,-35.93717342,267.5659045,-53.45255051,0.734101223,-0.744905505,1.58133894,,,
,48.44684744,315.9230268,-26.42131847,-0.843626809,-1.814925076,1.044659021,,,
,168.6474914,279.8901694,-64.68429946,-2.653113456,-0.50206157,1.65126524,,,
,166.2810038,210.783839,-128.4832645,-2.585743425,0.45477788,1.501578593,,,
,208.008546,180.71679,-63.07978845,0.026709582,1.603799592,0.330361672,,,
,55.86498931,271.297063,-55.98937844,-1.473045566,3.235832926,1.546171764,,,
,-36.26885869,154.9633112,-61.06206028,-3.100948522,0.558628542,2.182803772,,,
,-16.12171455,23.13397312,-23.53418414,-0.75091366,0.650849134,1.030270438,,,
,-31.65803812,23.72910438,-21.75755661,-0.445167788,0.667906728,0.968920489,,,
,-10.32131902,6.857903737,-8.794787564,-0.703695515,0.338644343,0.943077166,,,
,-2.176953143,3.713969724,-4.861604187,-0.284210499,0.583106116,0.829830479,,,
,-2.79603404,9.08413125,-7.455498718,-0.308014373,0.507423853,0.872200612,,,
,3.451268575,7.915984898,-5.166990692,-0.387622732,0.435149643,0.873874108,,,
,6.956509774,5.859467483,-2.204225934,-0.427785423,0.382115291,0.856030173,,,
,11.34261629,4.815423789,-0.662912169,-0.337917023,0.440522834,0.84165841,,,
,11.13360128,5.466704915,-1.02020865,-0.32686738,0.458243323,0.838331906,,,
,12.88490408,6.095354208,-0.323549267,-0.367889602,0.408190112,0.848497044,,,
,15.19690337,7.93048073,3.271646306,-0.375732722,0.415193578,0.838584404,,,
,17.53852459,7.277194252,3.865001399,-0.351266259,0.446011519,0.828759021,,,
,16.49900726,3.262593573,4.077339557,-0.315747706,0.485308767,0.811702345,,,
,13.68905035,2.673822143,1.206591821,-0.277842202,0.526174312,0.786043731,,,
,10.996206,-0.121868123,-0.650593576,-0.293575331,0.52393578,0.778624873,,,
,9.805198635,-3.391623668,-1.205846976,-0.33300948,0.493926809,0.790347706,,,
,9.66109975,-5.104882067,-0.707545581,-0.378770948,0.4400158,0.8045,,,
,8.547040613,-5.610230843,-0.677751776,-0.388307849,0.399859735,0.824071865,,,
,7.752462743,-3.380049921,-2.72842502,-0.359898369,0.424510296,0.8102579,,,
,5.927305686,-0.404508203,-5.506983848,-0.318828746,0.464616004,0.779084506,,,
,7.907963488,1.466600068,-9.013886625,-0.329916514,0.450693068,0.797965749,,,
,9.815168101,2.32374493,-10.57766033,-0.289009174,0.460521203,0.818040163,,,
,10.52764112,6.932961208,-14.44352117,-0.233912946,0.474948012,0.834690724,,,
,11.51736841,11.74311379,-20.1544207,-0.234001427,0.446316718,0.858733741,,,
,20.33799637,13.22272,-22.33710342,-0.259347095,0.40997737,0.901215902,,,
,32.42213464,20.33725153,-25.03900049,-0.352262487,0.431848624,0.902599796,,,
,44.69202582,34.61810998,-19.36809342,-0.246640979,0.433202141,0.869101427,,,
,64.47505528,53.59412838,-9.694388598,-0.440839246,0.259011825,0.986677268,,,
,86.03711869,79.39877238,-2.82359331,-0.472351376,0.217489806,0.977209174,,,
,116.4771058,103.0320209,4.102263222,-0.456529969,0.238344037,0.957456269,,,
,139.0486063,125.4842316,-1.240339035,-0.240637717,0.233994699,0.916768705,,,
,163.1880057,154.7273099,-6.178719567,-0.169737717,0.40946422,0.965244444,,,
,193.8493838,184.6003553,-26.25235322,-0.027790622,0.509461468,0.926447095,,,
,222.7013038,222.9041882,-50.75970617,0.038443323,0.533260143,0.903995923,,,
,253.698607,271.155657,-72.804773,0.074590316,0.399757187,0.891250561,,,
,315.3436518,359.9399937,-104.6652371,0.24188685,0.257983384,0.719256983,,,
,392.4671515,465.835142,-128.7295218,0.1570421,0.565159327,0.73889368,,,
,377.8570715,474.3912927,-133.4756177,-1.323572171,1.681307645,1.699072681,,,
,385.4982659,536.8706214,-138.8025209,-1.18624791,1.675862691,0.996339653,,,
,390.3712146,491.762399,-105.9431049,-2.129465443,1.782299796,0.931769113,,,
,440.304601,418.7605858,-66.86933131,-2.189134251,2.201129562,1.588456065,,,
,402.886962,286.479757,-72.36571544,-1.756627319,2.024088073,2.364900815,,,
,352.8608137,123.530732,-42.59396897,-1.840534862,2.564551274,2.699011621,,,
,219.1097179,23.8971529,-63.03240485,0.642404179,0.764872477,2.194251988,,,
,17.53588898,-144.848658,-16.08229506,-1.612128338,4.048518654,3.760088073,,,
,-142.4546112,-204.2442706,31.42662047,0.176151478,1.593233639,2.173855657,,,
,-200.943518,-210.0922216,43.39971952,0.545783996,0.622934862,1.463937819,,,
,-193.3313726,-214.2806004,54.31032563,0.275303364,0.116671967,1.137973496,,,
,-166.342826,-224.222163,67.97972352,0.121271356,0.005892966,0.979585015,,,
,-150.2211687,-240.7733094,79.10364182,-0.051707339,0.184007238,0.931019266,,,
,-153.8141297,-257.7517677,82.49835946,-0.201979409,0.414251478,0.948887768,,,
,-176.5255465,-272.2015915,84.82302112,-0.3349421,0.604359225,0.960064526,,,
,-205.3772946,-284.2195531,89.23892144,-0.520756065,0.702054128,0.97381998,,,
,-229.1312654,-302.0466765,95.83206138,-0.686083486,0.703402039,0.952717431,,,
,-242.8902166,-320.4216049,99.25726037,-0.737101835,0.666051478,0.876075127,,,
,-243.0475508,-332.2750131,99.52305549,-0.763026707,0.621537411,0.837712844,,,
,-237.4353146,-340.4564493,97.3332681,-0.813482263,0.680164016,0.876289501,,,
,-235.5994432,-345.3551812,93.78832092,-0.870216412,0.857482977,0.944779918,,,
,-239.7403811,-347.7715161,90.89012851,-0.862267176,0.943850051,0.944767686,,,
,-227.446884,-336.028345,89.91764724,-0.885922324,0.953124669,0.958539653,,,
,-198.7819201,-321.004303,88.18066839,-0.961681957,1.124159225,1.071759021,,,
,-176.0081656,-303.1233788,89.03254204,-1.128837717,1.582770133,1.292563609,,,
,-178.2577125,-299.3236946,114.9771023,-1.620307543,2.286022528,1.533678287,,,
,-216.9539069,-308.2181195,165.7081606,-1.991036188,2.780072579,1.319228135,,,
,-257.1484432,-293.1141499,212.1182577,-2.033535678,2.623790724,0.666939042,,,
,-267.589625,-254.5987237,233.2963248,-2.117198675,2.31941264,0.046391437,,,
,-261.0146478,-206.8491659,222.0933956,-2.232378186,2.25085158,-0.492911621,,,
,-238.9428238,-164.1950937,186.7074649,-2.697280938,2.059998471,-1.051687054,,,
,-164.1685657,-143.1870231,163.7294509,-3.743962895,1.574594597,-1.786665036,,,
,-34.2187011,-168.9594096,133.5996058,-3.87735423,1.395365749,-2.620375229,,,
,60.13656156,-78.44623004,58.68187901,-2.137369419,1.136340469,-2.814461876,,,
,95.30511209,77.88828374,-15.71164866,-1.654633129,1.416520082,-1.8260579,,,
,93.76379833,252.2175684,-27.66028241,-1.612830989,2.312520999,-0.970200815,,,
,45.65087069,250.8736386,-79.13549827,-0.30490632,0.90630897,-0.167149032,,,
,40.31508663,209.5656734,-66.01132701,0.488290418,-0.101375943,2.119892355,,,
,64.81510573,331.7497254,-33.8141356,-0.504139857,-1.073194801,1.262240265,,,
,177.2851166,304.5527939,-42.3709165,-2.793622528,0.032139857,1.649295617,,,
,166.8486904,195.5793153,-89.95466031,-2.81526106,0.548966157,1.66012844,,,
,186.1065467,146.2318928,-78.40016423,-0.639453517,1.065944546,0.711393578,,,
,47.80885893,203.4377752,-45.1660911,-0.892275841,3.617838124,1.242182161,,,
,-13.05793733,174.6030439,-60.93704089,-1.499848828,0.762164832,1.353828746,,,
,-34.8608149,37.2013475,-36.75896678,-1.368038838,0.57728736,1.185669011,,,
,-30.63920457,23.16611605,-17.16260698,-0.640722732,0.609593578,1.041669317,,,
,-10.06938947,6.77912204,-6.370717724,-0.731345464,0.383287768,0.989657085,,,
,-3.115973673,0.6339778,-0.938390277,-0.393141284,0.49216789,0.894321916,,,
,0.516120382,3.91725515,-2.872294723,-0.309570846,0.519781651,0.869150968,,,
,4.353619806,4.588647094,-2.300998505,-0.389998267,0.427434251,0.876245158,,,
,8.62989031,2.443894179,1.237245063,-0.412820999,0.392087258,0.858817839,,,
,13.74611694,1.021239974,3.712078963,-0.356834455,0.427459225,0.843618756,,,
,13.61427935,3.407952965,1.928747826,-0.296886035,0.481343731,0.825256371,,,
,13.83864963,5.150031142,2.303061153,-0.309550561,0.441229358,0.836349134,,,
,17.55021293,5.566800642,4.56996867,-0.368690928,0.406632008,0.853176249,,,
,22.26445237,4.760992799,7.04738088,-0.359960652,0.441370234,0.839053313,,,
,22.25345158,1.313964112,7.586706053,-0.342586952,0.46218736,0.827815494,,,
,19.55470577,-0.978382731,5.731296825,-0.274760347,0.513740775,0.807714271,,,
,13.9055138,-1.524927172,0.610658418,-0.227392457,0.563069521,0.780301835,,,
,6.349919356,-2.339386678,-3.713797836,-0.277800102,0.541642508,0.77519052,,,
,2.120001138,-4.555530133,-6.823297086,-0.333013761,0.481594292,0.787991641,,,
,0.935640079,-3.295939716,-5.752725446,-0.361479613,0.419883894,0.811062283,,,
,2.070726767,-3.6328389,-4.969205661,-0.369410703,0.403649541,0.826757798,,,
,3.8011739,-3.375007892,-4.583089403,-0.326815902,0.450612844,0.816550765,,,
,4.590480559,-1.802124153,-6.258246109,-0.302415494,0.45976524,0.824562895,,,
,6.988251636,2.258886107,-9.640988931,-0.281182875,0.458116208,0.835735474,,,
,9.451511788,7.658956031,-12.65073623,-0.296951274,0.443500714,0.837620999,,,
,13.32539403,11.41566841,-15.86056039,-0.287528338,0.439580938,0.846726402,,,
,18.66885573,15.76298568,-19.50978588,-0.263163201,0.434045362,0.863261162,,,
,28.36565075,20.46834427,-24.32904849,-0.265593782,0.422399286,0.885058818,,,
,44.36039785,27.76966005,-25.23563961,-0.327214271,0.371462691,0.940776758,,,
,52.69796509,54.53383646,-17.04320257,-0.469155657,0.29766738,0.985843833,,,
,73.09211133,66.76373519,-10.96245879,-0.372908155,0.365413252,0.944915902,,,
,100.5650365,89.33976201,-5.836606467,-0.473867278,0.236068705,0.960956371,,,
,128.8213096,113.9809579,-1.18854365,-0.442179103,0.370290622,0.934067584,,,
,160.7107081,141.1899787,-4.915233037,-0.332056473,0.443727931,1.007878389,,,
,178.8733556,167.9846365,-18.61614361,-0.101141081,0.435567074,0.943521203,,,
,204.4819908,200.0602463,-40.64373523,-0.012008563,0.498672987,0.911297044,,,
,235.225932,241.166473,-58.41316181,-0.083149745,0.487725688,1.006176351,,,
,287.6360431,307.572969,-83.48487819,0.156558002,0.307153109,0.837897248,,,
,359.6305392,405.5891455,-113.8880241,0.224496126,0.217111417,0.730455963,,,
,432.6748659,504.1244218,-131.3411207,-0.057485525,0.925900408,0.973023955,,,
,382.6016777,481.0406971,-136.6088374,-0.659898369,1.289467788,0.771373802,,,
,394.3268579,491.8787094,-121.290868,-2.214448216,2.103559735,1.303564322,,,
,419.0505025,446.1813146,-98.12509577,-1.693102039,1.630082671,0.859336799,,,
,395.1799921,339.3689181,-93.38066145,-1.873716208,2.16152263,2.017266157,,,
,399.5913087,214.4332363,-78.71122302,-1.888089195,2.154407238,2.680637309,,,
,280.6692774,54.53492508,-62.53141055,-1.198718858,2.343370336,2.345032926,,,
,167.151957,-27.684805,-65.68382434,-0.760793986,2.445419776,2.950889093,,,
,-126.7761941,-214.5639853,-3.013414228,-0.71441998,2.696658614,2.769984404,,,
,-180.5520647,-237.3945773,27.2978293,0.496080734,0.96655841,1.607216514,,,
,-194.4768299,-222.0491632,35.36140813,0.496294292,0.288493884,1.013563609,,,
,-171.4175704,-221.8394607,50.54444593,0.266656473,0.069312436,0.820929766,,,
,-148.7342859,-226.186205,63.54462911,0.08569052,0.174872681,0.791059939,,,
,-144.9780319,-242.8640897,70.90106343,-0.093783384,0.406655759,0.832916922,,,
,-161.812907,-262.9986288,76.09693119,-0.284342813,0.634534353,0.896006728,,,
,-189.1196745,-282.9176211,83.96473034,-0.391346687,0.735924465,0.89009419,,,
,-213.2912742,-297.7681142,94.78475182,-0.471572681,0.722445973,0.846812029,,,
,-226.0952766,-309.9141319,103.8244215,-0.534474312,0.676556371,0.793743629,,,
,-227.981511,-319.5740857,108.8200406,-0.617898165,0.660707951,0.767630887,,,
,-225.5313142,-329.1650554,111.71978,-0.695164424,0.720136697,0.819257492,,,
,-225.1678298,-340.9491357,112.5216917,-0.796808359,0.818980734,0.869962487,,,
,-218.9500345,-348.740445,110.2196619,-0.684126809,0.730906218,0.818249643,,,
,-192.1393912,-334.4875469,104.7862458,-0.698331702,0.744004077,0.833368298,,,
,-161.2040248,-313.1197162,100.8174817,-0.780258818,0.928344343,0.900892151,,,
,-136.5915341,-292.0235247,100.581595,-0.946032518,1.305782569,1.168145872,,,
,-138.6484526,-290.9767881,115.3931843,-1.324379307,2.042187666,1.52645423,,,
,-184.2082803,-294.277598,149.6003116,-1.483151784,2.552346993,1.573048012,,,
,-231.0327977,-283.8079975,198.8724475,-1.654174006,2.433624975,1.285995617,,,
,-241.2087573,-266.0282004,237.7957623,-1.950994088,2.044397655,0.833379715,,,
,-229.0678389,-242.907348,244.3251894,-2.178265138,1.914168196,0.371911927,,,
,-225.7327089,-212.2310731,212.2895721,-2.309029154,2.035411417,-0.16899633,,,
,-215.8316544,-175.5293448,157.1019907,-2.773442304,1.848339042,-0.910446687,,,
,-141.726611,-166.7504854,115.1110026,-3.799673598,1.52266738,-1.880330071,,,
,-22.11955134,-171.6595305,78.42090531,-3.348844037,1.258286239,-2.689437615,,,
,73.52280371,-51.36709873,29.68282342,-1.792988277,1.100603364,-2.614060449,,,
,103.3089887,91.67788818,-1.098875755,-1.586131906,1.538430479,-1.485358512,,,
,88.12159644,142.2915474,14.09957461,-2.067692864,2.061378593,-0.291046177,,,
,10.36663998,235.6991952,38.17795406,-1.098344444,1.806849439,0.560067788,,,
,-6.156316917,231.9148089,-14.12300858,0.352997248,1.021572477,0.643595311,,,
,-46.38036056,304.3089431,-65.27524813,1.005014577,-1.009613048,1.201528848,,,
,75.80437894,327.1921899,-57.64127306,-0.951172477,-2.007832518,1.147785423,,,
,155.2361537,291.9873138,-87.45140771,-2.813572885,0.095768603,1.768028338,,,
,169.4824055,198.6283675,-80.65429479,-2.376049134,0.751821814,1.519144343,,,
,177.6302091,174.847525,-36.06041664,-0.35206422,1.608481549,0.614179103,,,
,32.9263375,215.6124981,-44.6380532,-1.816039246,2.360736901,1.71551682,,,
,10.42456601,138.3958928,-48.69207337,-1.848700408,0.66428685,1.606447503,,,
,-17.25118625,36.63497872,-21.99699567,-0.7886316,0.73813843,1.026637207,,,
,-19.2543613,20.55955915,-11.11698551,-0.61234159,0.574112232,1.019187666,,,
,0.80815697,2.625407209,0.586365008,-0.69891896,0.415743833,0.948560449,,,
,7.837145905,-1.449525926,3.874970864,-0.352132824,0.526023038,0.884125382,,,
,6.865581372,1.862800384,0.646181801,-0.270069623,0.57993211,0.841939144,,,
,9.930619097,4.679460904,-0.371620426,-0.393142202,0.43746789,0.877113761,,,
,16.09604604,1.934878474,3.754134065,-0.418337615,0.407506422,0.865192355,,,
,19.8774529,0.498817056,5.696289103,-0.337123038,0.467493782,0.847911723,,,
,19.16572473,3.081882684,5.14149407,-0.331571152,0.481400306,0.837707136,,,
,20.74508289,3.160435198,7.786897506,-0.37098318,0.450652599,0.840877472,,,
,23.24948141,2.62363104,8.846067286,-0.356757696,0.469170744,0.828152192,,,
,22.63847922,4.096304461,8.694806428,-0.322038838,0.501519266,0.81343211,,,
,19.50434278,2.948268926,7.408917249,-0.315680224,0.506205912,0.793085933,,,
,16.08647765,2.058866541,4.629498985,-0.282522426,0.530875229,0.77061315,,,
,11.03728708,3.386237865,0.91879512,-0.24467788,0.558556983,0.763585933,,,
,5.579405713,3.240706585,-2.808639112,-0.252565545,0.544695821,0.763738634,,,
,4.072182937,2.883696583,-4.784655956,-0.309329969,0.510880734,0.775849134,,,
,2.947982448,2.464348773,-5.369130202,-0.351945056,0.469281244,0.795395107,,,
,3.817560493,0.399580766,-4.549628668,-0.364545056,0.466238532,0.794121713,,,
,4.71590102,-1.698762567,-4.708624456,-0.333013863,0.483905301,0.788773496,,,
,4.700144681,-1.87357199,-5.378870485,-0.312519368,0.501589399,0.787563609,,,
,3.455966829,-1.709706061,-6.682693244,-0.271587768,0.510681753,0.798308053,,,
,4.009214876,1.75044336,-8.296256986,-0.273277676,0.482787971,0.83249419,,,
,6.681776511,5.339107214,-10.59662524,-0.304818349,0.461255556,0.840167074,,,
,12.3931344,11.14998788,-11.34977826,-0.290695617,0.446499694,0.855362691,,,
,21.75308754,17.67402911,-13.28442755,-0.284553109,0.386934251,0.895526911,,,
,41.24872136,21.99814159,-16.12228751,-0.297262487,0.345215087,0.922941386,,,
,56.69715321,34.86516938,-18.11789951,-0.169279511,0.554184098,0.839590826,,,
,63.05165623,67.47208291,-15.56966972,-0.387963812,0.340673394,0.971639755,,,
,80.46854188,84.82852151,-12.26095304,-0.349143935,0.43333476,0.914968807,,,
,105.8054231,105.9196709,-6.346252426,-0.523931295,0.312203364,0.858085321,,,
,133.6768405,124.5558107,-4.538169512,-0.385233231,0.393579205,0.850418552,,,
,167.5977754,146.2316063,-12.29573158,-0.232590724,0.432980326,0.916197452,,,
,184.5023795,170.2504554,-27.15344394,-0.070211315,0.550572885,0.899511009,,,
,211.7928749,207.5627275,-45.98284244,-0.053806218,0.528761468,0.942624465,,,
,251.3192279,256.4739,-63.59132517,0.031865138,0.379571764,0.959035066,,,
,314.7201592,342.5916338,-90.86640805,0.165951784,0.293176351,0.854756779,,,
,382.9634433,431.4835147,-117.0462821,0.238759939,0.587759021,0.816361876,,,
,391.812891,467.1924218,-127.7323461,-1.223578491,1.75605841,1.43653578,,,
,376.0965441,489.1267931,-143.8858598,-1.06782314,1.62970265,0.87150948,,,
,378.2058882,429.1677339,-117.5432657,-2.00439684,1.893773598,0.72858634,,,
,409.1987796,360.0935464,-86.93689161,-2.028706218,2.206066972,1.381149337,,,
,370.3492618,247.2802765,-90.30943578,-1.537182773,1.917839755,2.140484404,,,
,336.8009786,114.4574296,-60.63497754,-1.984724567,2.193136493,2.309800714,,,
,173.0174978,-28.44930258,-69.30663648,0.726261468,0.224751274,2.174959123,,,
,67.09559235,-132.6924417,-63.89092481,-1.926233639,3.77188053,3.328297044,,,
,-120.6369513,-226.5192654,-24.4795645,-0.037018858,1.490588991,1.749432008,,,
,-169.0851739,-219.733497,-13.67369508,0.635081244,0.630393272,1.056153415,,,
,-171.9508223,-197.2402626,-4.036430371,0.435675841,0.215876045,0.685995413,,,
,-145.8951655,-183.5757922,15.70242404,0.387133639,0.026910805,0.518053007,,,
,-124.4249472,-171.6779798,30.2532602,0.228214679,0.194031091,0.509566055,,,
,-119.001386,-177.1083019,44.3488241,0.061176453,0.396265341,0.603939755,,,
,-130.3587846,-188.244195,59.71738563,-0.126343017,0.652481957,0.717541794,,,
,-157.6288827,-202.2286051,78.43763567,-0.269735168,0.846969419,0.802033333,,,
,-192.9712687,-221.2363653,101.7342142,-0.416210398,0.959899388,0.83513211,,,
,-228.3818366,-236.670244,120.5162864,-0.472807339,0.91861947,0.78192895,,,
,-251.1891092,-248.2759625,132.8070905,-0.48206422,0.781792355,0.665273598,,,
,-255.3903222,-251.5863981,137.2883081,-0.453618654,0.622367992,0.578807441,,,
,-244.5300791,-249.2364117,135.3485021,-0.509607034,0.584681957,0.594001937,,,
,-234.263764,-248.27877,129.4917276,-0.567196942,0.696421509,0.667047401,,,
,-225.7905777,-246.7141942,120.1175078,-0.583068196,0.843444139,0.759421305,,,
,-218.0037374,-241.3321151,110.4589863,-0.685733333,0.974313863,0.908154944,,,
,-202.4353855,-241.5599805,104.5743087,-0.898848522,1.119104893,1.134057085,,,
,-184.3977001,-255.6229431,104.2907519,-1.187547706,1.4444263,1.410229969,,,
,-182.7116572,-282.3466687,104.3143578,-1.43730632,1.970438022,1.6190579,,,
,-203.6331538,-302.3427238,105.1499021,-1.541486035,2.461534251,1.564872375,,,
,-223.8177121,-305.0802589,113.2037407,-1.838945872,2.387615494,1.157972987,,,
,-191.7109334,-333.1473986,139.9616145,-2.125398675,1.983904179,0.652234455,,,
,-156.3474053,-328.0297396,133.6061948,-2.182128135,1.935444139,0.054893476,,,
,-124.8666976,-302.3836903,119.7534504,-2.463458614,1.779585321,-0.520435984,,,
,-87.74029303,-258.0157294,126.3279119,-3.473172273,1.489273089,-1.471193578,,,
,-36.43450078,-255.9600141,142.0386438,-3.94826473,1.832709072,-2.76403945,,,
,-14.32663778,-115.9780023,58.48718795,-1.884417533,1.129989704,-3.168482365,,,
,21.02938455,85.07231505,-42.68329309,-1.097628236,0.64166524,-2.153535168,,,
,52.37836924,203.2736801,-65.12140897,-0.90199735,1.457864934,-1.124111519,,,
,-63.16756559,289.1523186,-95.0253941,-1.207360652,0.959965545,-0.17756208,,,
,-70.15152004,257.1573813,-91.48921318,-1.104199388,0.182066157,1.054508461,,,
,63.84096289,257.1224309,-52.45119217,0.608912946,-1.376216514,1.366861366,,,
,145.0766952,337.6856254,-42.74568819,-0.784358818,-0.640717737,1.345653109,,,
,195.7176846,307.256639,-65.48220049,-2.411038634,-0.349521101,0.700818858,,,
,231.2361977,381.0885535,-76.38404035,-1.358345362,3.293579817,1.078830071,,,
,-151.9044041,100.9373445,-57.03090112,-3.294482365,2.711892864,1.614656371,,,
,-26.72406937,5.728432036,-17.28407403,-2.108739348,0.086279918,1.476767686,,,
,11.83621943,9.694331302,6.057653585,-0.368476656,0.331081753,1.044245158,,,
,20.61886029,-2.404417387,10.42588381,-0.465571152,0.50166473,0.888218552,,,
,14.09092294,4.863494948,2.08413398,-0.439565443,0.798572885,0.681438634,,,
,-8.095893645,10.58848924,-12.23809203,-0.233533435,0.692743935,0.762039857,,,
,-4.552092387,8.340890398,-14.00687003,-0.416603058,0.517126809,0.840492966,,,
,-1.166599367,10.33776291,-13.07661576,-0.366262181,0.489152497,0.854837003,,,
,2.850923397,14.43297875,-11.91379791,-0.39001366,0.416626606,0.878556269,,,
,7.891347712,17.3510528,-9.400461249,-0.443477676,0.423077676,0.847140265,,,
,13.20008816,12.66930006,-6.846387286,-0.388351478,0.446021713,0.855256167,,,
,15.30020767,11.39022908,-5.281926026,-0.403965138,0.460132212,0.808223038,,,
,12.93824645,14.12799331,-4.264467573,-0.37553792,0.490971254,0.789756881,,,
,11.54355259,16.78061602,-5.908054304,-0.351856983,0.521794495,0.779172069,,,
,8.278036928,13.86729752,-8.339400708,-0.359684913,0.52959001,0.763819266,,,
,5.087349559,9.826054299,-9.390491783,-0.389603568,0.509660856,0.754357187,,,
,3.067157669,5.813000606,-7.75154601,-0.428984506,0.478957492,0.745867074,,,
,-1.081629726,1.313333858,-5.427113531,-0.403779511,0.49583578,0.749989399,,,
,-2.873096864,-0.118487672,-5.772664378,-0.392783384,0.489597452,0.759054332,,,
,-5.128086858,-1.575977711,-3.757858291,-0.403832824,0.481892559,0.765509786,,,
,-6.088879785,-4.64938062,-2.767156967,-0.403075841,0.472601631,0.774024873,,,
,-5.42808756,-6.728243388,-2.363966567,-0.403907645,0.457132722,0.785673496,,,
,-2.153519169,-8.178686047,-1.046450117,-0.394527115,0.44467788,0.807977574,,,
,1.037511975,-7.068236544,0.702217074,-0.385100306,0.447697248,0.817873802,,,
,5.958245407,-6.211951119,2.576763092,-0.400858716,0.440029766,0.818218043,,,
,7.594899349,-6.196653146,3.268666925,-0.390580224,0.46008736,0.809472477,,,
,7.577137657,-4.454804153,1.996013071,-0.367718043,0.478541794,0.806655352,,,
,6.136377986,-1.491409141,0.508385452,-0.34718736,0.50475209,0.794578695,,,
,5.625070449,-0.284358954,-0.055576906,-0.353502548,0.490112029,0.795471356,,,
,7.209356049,0.77910801,-0.026642537,-0.35039735,0.480793476,0.80937421,,,
,9.541236979,2.724299724,-1.060544879,-0.352025178,0.467626096,0.824932008,,,
,14.52545413,3.768973672,-1.343356846,-0.375678389,0.452250459,0.830105097,,,
,20.10617765,3.359308849,0.788046151,-0.408757798,0.432315698,0.824601631,,,
,26.27217755,4.250659291,4.01540282,-0.403256677,0.425348624,0.826794597,,,
,28.29517694,11.71641395,6.929294279,-0.391437513,0.443811621,0.83044791,,,
,34.73350368,15.54365743,7.922459321,-0.377197757,0.46928369,0.814626606,,,
,39.95011252,21.43933585,8.091825645,-0.385043323,0.470890724,0.803926096,,,
,44.5470675,27.12095723,7.942455548,-0.362166055,0.504774924,0.80036157,,,
,47.66905723,31.75670146,5.088610066,-0.347222324,0.500079613,0.806230275,,,
,53.6210574,39.28639821,0.650822759,-0.318884913,0.515382365,0.816496636,,,
,62.83948996,46.44097949,-5.749402291,-0.315749134,0.517663609,0.822648216,,,
,71.71443431,57.90970379,-12.58667955,-0.28109684,0.510626504,0.820289806,,,
,88.34722722,70.51574931,-21.21284563,-0.254463812,0.481065953,0.86470948,,,
,103.6451431,87.90009096,-28.7368701,-0.23716208,0.490224159,0.876770133,,,
,117.3207289,110.0063497,-36.96471593,-0.214249032,0.527241081,0.860773802,,,
,134.7231187,132.9091916,-42.25494984,-0.271708359,0.490479001,0.837137411,,,
,156.4669243,157.276571,-44.18472899,-0.340959225,0.416803976,0.793487258,,,
,184.8303405,186.594363,-46.49987955,-0.345590316,0.406166972,0.75470581,,,
,217.2064667,216.3362584,-46.18332037,-0.349378593,0.42642263,0.705083078,,,
,248.7734618,249.5284483,-46.46137679,-0.3846684,0.517650459,0.678082569,,,
,274.2086053,277.3663476,-41.78861949,-0.712252701,0.862282263,0.775617941,,,
,252.4337454,274.1702744,-50.4076809,-0.476005097,0.805668094,0.467741896,,,
,266.3917421,286.0545077,-38.17222448,-1.216285729,1.184276147,0.880240979,,,
,253.2216769,217.6559521,-42.10472031,-1.255699286,1.304111519,0.636517125,,,
,247.8367331,193.413764,-30.41265706,-1.031371865,1.130692253,0.627176656,,,
,266.7258338,115.4038986,-7.118599534,-1.447769929,1.228190214,0.873944648,,,
,283.967509,47.5310317,20.10761005,-1.438970234,1.254553211,0.831042813,,,
,240.1074179,-33.18600197,20.36567024,-1.183901019,1.344145566,0.599979001,,,
,161.0273819,-75.90063585,-4.070177585,0.25260581,0.819850153,0.423174618,,,
,81.06241263,-45.79221938,-5.304385972,0.44889633,0.976341692,0.697287666,,,
,-64.54484154,-66.07074274,-9.786061845,-0.875480428,2.475289602,1.074770234,,,
,-165.7429391,-68.79928235,-8.63424479,-0.111727523,0.871862181,0.622804485,,,
,-185.3006816,-75.89015073,-4.122832406,0.096217431,0.335084506,0.43822844,,,
,-175.0557951,-86.35797505,-4.424150911,-0.170298777,0.048827115,0.468618756,,,
,-143.5950837,-117.8971817,0.229469597,-0.239718043,-0.159909378,0.444918451,,,
,-107.8793012,-156.5278297,6.651696227,-0.301227625,-0.114387054,0.489940061,,,
,-94.02082719,-191.4489198,13.53498199,-0.313584506,0.154099592,0.484528644,,,
,-114.3540107,-205.888373,13.71901604,-0.1950684,0.388497146,0.415435576,,,
,-145.7969032,-203.710102,9.708712543,-0.153142712,0.487249032,0.377361468,,,
,-174.2594411,-205.5431659,7.671446511,-0.291730887,0.540080326,0.386843119,,,
,-190.8229634,-217.3499353,10.7980199,-0.373695923,0.455495311,0.382327625,,,
,-186.8162123,-233.2117562,17.15498664,-0.366618654,0.410775331,0.371973598,,,
,-182.9074942,-245.1587857,29.52543192,-0.402456779,0.586321203,0.28218736,,,
,-183.9264423,-238.1610229,44.94859632,-0.350952701,0.742237207,0.2144684,,,
,-185.5053421,-226.3379242,66.17009362,-0.477673293,0.872921611,0.228495821,,,
,-187.062183,-217.5120251,89.217722,-0.627227217,0.943590928,0.221161264,,,
,-180.8076039,-210.420641,111.5307612,-0.754810092,0.957069521,0.225650968,,,
,-170.8007814,-202.9032056,128.1420109,-0.893314373,0.986908665,0.19621947,,,
,-157.493149,-192.0017668,140.8197907,-1.079139755,1.061475127,0.206820591,,,
,-149.3895778,-177.418272,146.7692126,-1.21436524,1.166988073,0.153365443,,,
,-140.5994884,-153.6103286,143.3236736,-1.262987564,1.156642304,0.07283476,,,
,-122.6376626,-121.9155639,130.852445,-1.267461672,1.067648114,-0.050054638,,,
,-91.43077148,-82.2588631,112.35244,-1.235785423,1.04160897,-0.123896228,,,
,-40.56816209,-39.74694168,82.5683176,-0.424493272,1.636354638,-0.569534047,,,
,-67.94362718,187.9262607,-61.48289778,-1.206539042,1.010629664,-2.540546585,,,
,-8.641922424,279.3652255,-209.9042342,-0.597339348,-1.417015291,0.069722528,,,
,67.42756409,233.6726434,-45.61706618,-3.911993374,5.341357288,5.148940469,,,
,-186.3287398,-110.9277231,-57.46033299,-0.814020897,-1.118728236,0.501219878,,,
,32.18745113,31.5171478,3.07936167,-1.091087768,0.716705301,1.625811723,,,
,-10.5306205,-5.897454585,-1.566122837,-0.259724159,-0.294710499,0.81667156,,,
,20.08091021,-7.716137219,15.83471999,-0.820527727,0.261560041,1.021767686,,,
,32.49581701,2.231212246,23.56380606,-0.44521315,0.244119674,0.849938838,,,
,29.29114947,-9.429109139,23.44033365,-0.271448522,0.547859939,0.757956779,,,
,21.35568401,-6.917777827,17.95999234,-0.257840163,0.674480428,0.715918858,,,
,9.431630153,-6.047856007,10.03753302,-0.320253211,0.612753313,0.770079001,,,
,2.55642309,-5.70230516,4.08192322,-0.260385525,0.6495737,0.776559429,,,
,-4.363818455,-3.410932346,-0.110466263,-0.308541182,0.587920693,0.800079001,,,
,-5.689642793,-3.552452921,-3.319889352,-0.351896738,0.514033741,0.791595005,,,
,-6.953644985,-3.748519079,-3.137115816,-0.337781753,0.473072987,0.801298165,,,
,-5.192659201,-3.46083697,-1.827047817,-0.349690112,0.439845158,0.826379001,,,
,-3.918171882,-3.282818983,0.813714661,-0.359199185,0.42515209,0.843668196,,,
,-1.089078177,-3.89634219,2.699719835,-0.369449745,0.425935474,0.84856738,,,
,0.806438097,-3.57474098,3.548327625,-0.3253158,0.43047054,0.838242202,,,
,0.912664472,-2.095077474,3.716719921,-0.290604689,0.48283843,0.832889399,,,
,-0.054946653,-0.64646828,0.992019126,-0.273944648,0.5322684,0.803067992,,,
,-1.93969132,0.181455734,-2.163488634,-0.28890581,0.526153109,0.800287768,,,
,-5.210478189,-0.091272177,-3.187135031,-0.315715494,0.506155657,0.806301121,,,
,-5.010916989,0.452865841,-3.745482403,-0.345686442,0.483070133,0.815489806,,,
,-4.482936381,-0.329049662,-2.663967268,-0.370923751,0.464604689,0.823024975,,,
,-2.821645254,-0.788389926,-0.845743001,-0.378833435,0.446860245,0.830166463,,,
,-0.566999034,-1.019062734,0.262300079,-0.353620591,0.458356881,0.829614169,,,
,-0.146906379,-1.755829163,1.238849345,-0.337073293,0.467564832,0.829254944,,,
,-0.145817759,-0.539038694,1.093948318,-0.320510398,0.482958206,0.825020795,,,
,-0.149656576,-0.442036939,0.940567516,-0.314190724,0.490670948,0.820227931,,,
,-1.705351581,-0.235256471,-0.776988066,-0.309475229,0.483709276,0.821661468,,,
,-2.524108271,-0.192170044,-1.147978238,-0.318938226,0.47216371,0.822631906,,,
,-1.193127313,0.121065982,-0.767305079,-0.326814475,0.464482161,0.820464424,,,
,-0.57736957,0.633920505,-0.599714924,-0.333903772,0.470664628,0.822970133,,,
,-0.348931297,-0.183919452,0.99115969,-0.329954842,0.473750357,0.81977686,,,
,-0.576682021,-0.069671668,-0.296333772,-0.329943935,0.476847604,0.816673394,,,
,-0.056035272,0.55198754,0.075745021,-0.345718756,0.464534251,0.821672885,,,
,-0.097230938,0.013120734,0.790624462,-0.334682365,0.471450153,0.819880122,,,
,-0.668699043,-0.409321049,0.26459191,-0.325232008,0.470651274,0.819663099,,,
,-0.061306484,0.038388172,0.018907607,-0.315785219,0.475239857,0.822566055,,,
,-0.074770992,-0.082906993,-0.649906027,-0.325226707,0.476821916,0.819675127,,,
,-0.985888478,1.239078528,-0.806953759,-0.320506626,0.475259633,0.821119062,,,
,-1.898839429,0.689554706,-0.566540668,-0.322085933,0.475258308,0.822709684,,,
,-0.533309116,0.774810826,-0.958386504,-0.324445872,0.473728338,0.821205912,,,
,-0.99740493,1.120820039,-1.373150652,-0.328371458,0.473757594,0.816631498,,,
,0.345780029,0.239324471,-0.076031499,-0.334693986,0.467581549,0.822982161,,,
,-0.774524347,0.190279284,-0.143067561,-0.333112029,0.470668298,0.821397452,,,
,-0.479508379,-0.079927612,-0.604126699,-0.329965749,0.470653211,0.822880326,,,
,-0.877943229,1.046564709,-0.446677897,-0.326810703,0.473732314,0.822037105,,,
,-1.145800999,1.178173114,-1.169063085,-0.325224669,0.476824873,0.818897757,,,
,-1.410221021,0.960105377,-1.688392031,-0.333104485,0.472219776,0.8190684,,,
,-0.386058962,1.524468806,-1.413200402,-0.325225994,0.475282263,0.818894699,,,
,-2.230410105,1.607834165,-2.209611737,-0.320506626,0.475259633,0.821119062,,,
,-1.4064395,1.217821794,-1.533005877,-0.315783282,0.477553925,0.82257054,,,
,-1.366447046,1.400423443,-2.250635515,-0.331551172,0.466020795,0.825239348,,,
,-1.73130657,1.69165789,-2.767214263,-0.331540367,0.471429052,0.822917737,,,
,-1.406210317,2.12607449,-1.884916554,-0.345725484,0.461443017,0.823221611,,,
,-1.713430286,1.316599717,-1.741218739,-0.340988991,0.464526402,0.820010398,,,
,-1.303478984,1.067706851,-1.480580238,-0.333116208,0.470662385,0.822952192,,,
,-0.294614898,1.304109237,-1.928404051,-0.322085729,0.470636188,0.821145973,,,
,-0.703821356,2.513680439,-2.387343245,-0.322087258,0.473715596,0.822706728,,,
,-1.397329471,1.939347545,-1.320667718,-0.340204281,0.466060856,0.821550153,,,
,-0.691560059,0.968012195,-1.369712905,-0.342563609,0.465302345,0.820047808,,,
,-0.687778537,1.428040009,-1.314594365,-0.344146381,0.466066463,0.823194699,,,
,-0.458767307,1.772387643,-0.023262086,-0.342565749,0.467610398,0.821607034,,,
,-1.288925856,-0.372766342,-0.308595068,-0.336257492,0.469143629,0.819134251,,,
,-1.898610246,1.091942966,-0.768966657,-0.339430173,0.459876045,0.824629664,,,
,-0.556284723,0.971048871,0.43143722,-0.333113354,0.469125586,0.821394495,,,
,-0.465528209,0.95328718,-0.133155392,-0.331536086,0.469123955,0.820581142,,,
,-0.98124752,0.944005263,-0.500077564,-0.331529969,0.471443935,0.819030887,,,
