Packet number,Gyroscope X (deg/s),Gyroscope Y (deg/s),Gyroscope Z (deg/s),Accelerometer X (g),Accelerometer Y (g),Accelerometer Z (g),Magnetometer X (G),Magnetometer Y (G),Magnetometer Z (G)
,-0.986576027,0.083651838,-0.346696762,-0.345475331,0.446134557,0.828604485,,,
,-0.567858471,0.051909976,0.327388084,-0.343893374,0.449221203,0.827019878,,,
,-0.861155566,-0.028418707,0.991216986,-0.343097554,0.449230683,0.823892457,,,
,-0.264305431,-0.152979731,0.329909098,-0.340737615,0.45076055,0.82539633,,,
,-0.381647187,-0.026356059,-0.544710976,-0.343888583,0.449998471,0.825466667,,,
,-0.465470913,0.557831709,0.229870667,-0.343893374,0.449221203,0.827019878,,,
,0.450975081,0.556800385,0.293984645,-0.347045056,0.447687666,0.827088685,,,
,0.187128016,0.290375011,-0.122956743,-0.346249949,0.449236901,0.824741692,,,
,-0.063712907,1.004108536,-0.120836799,-0.343886035,0.453083792,0.825472579,,,
,0.764382994,1.378651047,0.561727822,-0.343096228,0.450773394,0.823895413,,,
,-0.578114415,0.64280135,-0.336498113,-0.342307339,0.452313761,0.82388053,,,
,-0.327502676,0.5851045,-0.539210581,-0.347036799,0.44769949,0.823979307,,,
,-0.166616127,0.800765814,-0.123758884,-0.343883282,0.453858104,0.824696738,,,
,-0.519099762,0.604871544,0.075802316,-0.350188685,0.450788175,0.825611825,,,
,-0.589573571,-0.082849697,-0.753496796,-0.343882467,0.452318349,0.823916412,,,
,-0.973569885,1.065644203,0.123873475,-0.342312029,0.449225484,0.824651886,,,
,-0.472518294,0.598225234,-0.129316574,-0.347035678,0.453864322,0.825545973,,,
,-0.064113977,0.346868649,0.028304115,-0.345459633,0.45000897,0.823947808,,,
,-0.565853118,0.661823549,0.281035799,-0.345465953,0.452311111,0.827061774,,,
,0.083594542,1.096240149,-0.42668167,-0.345459633,0.45000897,0.823947808,,,
,0.240183908,0.395226287,-0.018449241,-0.345459735,0.45231998,0.824729664,,,
,-0.268488023,0.547804948,-0.075802316,-0.343098369,0.453081448,0.825454638,,,
,-0.774868122,1.159437394,-0.129259279,-0.345457085,0.453094292,0.823953823,,,
,-0.978440027,0.149255506,0.117227165,-0.347034149,0.450784913,0.823985219,,,
,-0.871526102,0.611918925,0.276566728,-0.34546055,0.453859735,0.82550999,,,
,-0.555138808,-0.027272791,1.047538737,-0.348610907,0.453868909,0.825581855,,,
,-0.580406246,0.133384575,-0.340394226,-0.343888685,0.45230948,0.826248522,,,
,-0.769023953,1.370916116,0.129488462,-0.343881244,0.45386106,0.823919368,,,
,0.337472141,-0.117800123,-0.12421725,-0.343887156,0.449230071,0.824687768,,,
,-0.467991927,-0.253763007,0.326585943,-0.345463812,0.450003058,0.825502548,,,
,-0.056035272,0.157105027,0.489707027,-0.345467278,0.4507684,0.827058818,,,
,0.280405545,0.580062472,-0.633347547,-0.347036391,0.453092966,0.825544444,,,
,-1.17863148,0.205290778,0.269060981,-0.34467421,0.452314679,0.825489093,,,
,-0.674829691,-0.055462315,0.119805475,-0.345453517,0.452328848,0.822397655,,,
,-0.572556725,-0.156016408,0.172059226,-0.3470316,0.453870234,0.823991233,,,
,-0.973569885,0.359015354,0.324408704,-0.343884608,0.452315392,0.824693782,,,
,-0.069041414,0.994482845,-0.429775642,-0.343893374,0.449221203,0.827019878,,,
,-0.323262788,-0.822309028,0.067265245,-0.347038328,0.450778899,0.825539959,,,
,0.354660875,-0.242246556,0.800651223,-0.345469215,0.448454434,0.827054332,,,
,0.35133772,0.561613231,0.447021672,-0.342310194,0.453850561,0.825438226,,,
,-0.578229007,0.591922698,-0.336727296,-0.343885321,0.453855148,0.825474108,,,
,-0.464210406,-0.14553128,0.533481003,-0.343879918,0.45540367,0.823922426,,,
,-0.668928226,-0.248491796,0.478247872,-0.343095719,0.453855759,0.824678797,,,
,-0.530444327,0.385027638,-0.440375361,-0.34545841,0.453862691,0.824732722,,,
,-0.266425375,-0.408805387,0.276795911,-0.345463099,0.450774312,0.825504077,,,
,-0.877141089,0.148911731,0.118602264,-0.345453517,0.452328848,0.822397655,,,
,-0.464382293,-0.449428095,0.58252619,-0.347034964,0.452324567,0.824765647,,,
,-0.575364218,-0.161115732,0.017475213,-0.343885321,0.453855148,0.825474108,,,
,-0.159626042,-0.804375449,0.686804509,-0.340735168,0.458467992,0.826965953,,,
,-1.274773798,0.265222163,0.525746073,-0.353337615,0.45002895,0.824904791,,,
,-0.669272,0.356723523,0.277311573,-0.34703629,0.450781855,0.824762589,,,
,-1.190835481,0.336956479,-0.399007809,-0.337585321,0.453065443,0.82532895,,,
,-0.680559269,-0.621143546,-0.03896113,-0.340736493,0.456925382,0.826962997,,,
,-0.265795121,0.550784328,0.026814425,-0.343897554,0.449215291,0.828574618,,,
,-0.668813634,0.760544177,0.177330438,-0.343107339,0.452298267,0.828562589,,,
,0.344118452,0.246543739,0.136192068,-0.343891641,0.456157288,0.828588073,,,
,-0.986060365,1.197825567,-0.543049398,-0.340736697,0.461547401,0.828526606,,,
,-1.392000963,1.554033428,-0.597709572,-0.339157187,0.456926707,0.825372375,,,
,-0.577197683,1.149697112,-0.434703079,-0.350184709,0.455416106,0.825620795,,,
,-1.395209527,1.144082125,-0.703191102,-0.349405505,0.455402039,0.828712232,,,
,-2.080638937,2.249432304,0.375860314,-0.353345362,0.45309949,0.828797554,,,
,-1.185277791,2.164462663,-0.590490304,-0.337584608,0.453836697,0.825330479,,,
,-0.964918223,2.191162496,0.287223743,-0.343886646,0.452312436,0.825471152,,,
,-1.362321749,3.117348772,0.54614337,-0.343881244,0.45386106,0.823919368,,,
,-1.497597085,2.206059399,-0.953860137,-0.342295719,0.456182263,0.820778491,,,
,-1.929664558,2.449337278,0.275821883,-0.347029867,0.446168705,0.820866871,,,
,-1.374067384,3.19951092,-0.121696236,-0.351756167,0.447722222,0.821754944,,,
,-1.781039306,2.291544702,0.122498377,-0.348600815,0.446179205,0.819348114,,,
,-2.34614758,1.777544264,-0.095053698,-0.350186952,0.443086646,0.822487462,,,
,-1.365644905,1.191752214,0.839612353,-0.35176208,0.443091233,0.822523344,,,
,-2.288909096,1.686787749,0.265222163,-0.353337309,0.443095821,0.822559327,,,
,-4.353562511,2.755067558,-1.658025268,-0.347029562,0.441546585,0.81930316,,,
,-6.44909835,3.248727994,-2.402526627,-0.347036799,0.44769949,0.823979307,,,
,-8.259014729,4.420483981,-4.269853377,-0.343856575,0.44388104,0.811462283,,,
,-7.563443966,3.781234969,-4.937120025,-0.293479409,0.449086137,0.822760958,,,
,-6.956223295,4.481561282,-5.384485471,-0.331290622,0.433778491,0.82126106,,,
,-3.484786606,2.112552686,-4.275468363,-0.374661876,0.387603976,0.827600714,,,
,-2.129053871,1.710164427,-2.355257608,-0.393558919,0.398451784,0.829607441,,,
,-0.554795033,-1.073493725,-1.63464859,-0.397474924,0.400035576,0.821926606,,,
,0.502483986,-1.753250853,-1.935795207,-0.351819164,0.42220897,0.837252803,,,
,0.379928314,-0.921774501,-3.011523467,-0.318682059,0.444537513,0.821771967,,,
,0.784952179,-1.172328945,-2.952222335,-0.353305301,0.468564628,0.818721814,,,
,-0.223568132,-1.157145563,-2.504799593,-0.331259021,0.468491437,0.820550968,,,
,-0.712071948,-2.23264464,-1.130331138,-0.339122834,0.475465341,0.818412029,,,
,-2.240780641,-2.385968146,-1.408559444,-0.370638736,0.458590724,0.818320183,,,
,-2.196605595,-4.289333942,1.301874702,-0.376189806,0.443144648,0.827744241,,,
,-2.929819685,-6.343960595,0.709149863,-0.358089195,0.446153517,0.833556065,,,
,-3.311409577,-5.493404748,1.791066068,-0.370688481,0.443882161,0.8322842,,,
,-2.187151791,-5.43948942,2.063278316,-0.35968104,0.446134353,0.839810805,,,
,-1.154051591,-4.65969386,2.751343332,-0.343935066,0.453784098,0.844130683,,,
,-0.641770026,-2.434497672,2.312171182,-0.343949235,0.446830275,0.847226707,,,
,0.075573133,-0.002463719,1.980657802,-0.34393945,0.443762691,0.842556575,,,
,1.611672982,0.364687637,2.467500041,-0.353378287,0.433792457,0.834979103,,,
,3.967388957,0.435562516,3.37449223,-0.356520795,0.428420082,0.830376249,,,
,6.865925146,0.307048082,6.138727113,-0.362822018,0.423044954,0.828954842,,,
,9.12309238,-0.475039308,7.449941027,-0.367543629,0.427686748,0.82907156,,,
,10.66262998,-0.305157322,8.243086503,-0.347064118,0.439956575,0.83173792,,,
,11.99378282,-0.845800297,9.029299189,-0.340728848,0.456165851,0.82385209,,,
,11.47193286,-1.271507939,8.450898295,-0.313951886,0.449923038,0.82167472,,,
,8.999218905,0.705998595,6.222321655,-0.315526504,0.467647604,0.827186544,,,
,7.516174948,0.864593313,2.961905322,-0.305301733,0.453730785,0.827703466,,,
,5.192659201,2.739253923,0.68353865,-0.309200408,0.470747095,0.818497859,,,
,4.008699214,4.278505039,-0.762205755,-0.326619776,0.452227625,0.826791947,,,
,3.61559287,6.019265413,-0.49795762,-0.321098675,0.44451896,0.821209786,,,
,4.815366493,6.029177582,-1.664213212,-0.319560958,0.446772171,0.835948114,,,
,5.63945169,8.013788793,-1.586348247,-0.308534455,0.456755556,0.838825586,,,
,4.767753701,9.073875306,-2.202048694,-0.367550255,0.466248726,0.823088583,,,
,3.079991924,8.815356749,-2.53510906,-0.361997655,0.478615494,0.812103772,,,
,4.18849337,8.037910316,-2.885300865,-0.375387768,0.472489704,0.810842406,,,
,3.060454063,7.471312353,-3.163299987,-0.351748726,0.480911519,0.808765341,,,
,1.426149248,6.555897683,-3.346130819,-0.36435158,0.481716616,0.8098316,,,
,0.617934982,5.961797746,-2.899338331,-0.365913965,0.47480581,0.802857798,,,
,-0.609168728,4.38845564,-2.876706498,-0.370643527,0.472502548,0.80373843,,,
,-0.497613845,3.441585588,-2.214195399,-0.384842202,0.456334047,0.807139755,,,
,-1.004337719,2.235509429,-1.766658066,-0.389557798,0.465606728,0.806488073,,,
,-1.913277965,0.231417653,-0.816865929,-0.389529867,0.474120999,0.798730989,,,
,-2.635835041,-1.050690005,-1.096068262,-0.364355861,0.469384098,0.807475535,,,
,-2.745155388,-2.325463803,-1.158577958,-0.36435739,0.472463507,0.80903629,,,
,-2.726190485,-2.696683159,0.020970255,-0.358030275,0.469401223,0.798003568,,,
,-1.829626127,-2.738108007,-1.150098182,-0.353388583,0.475430887,0.831334251,,,
,-0.797098885,0.56230078,-1.266122136,-0.334527319,0.478399083,0.847233741,,,
,0.314439238,5.342544961,-2.913719571,-0.301466972,0.473653925,0.851911927,,,
,5.126940942,12.34449029,-3.254572164,-0.339305912,0.447469419,0.878214679,,,
,14.29386459,18.27981738,-4.473826352,-0.337911417,0.424865341,0.938769317,,,
,36.24210156,36.34173892,-5.329939889,-0.246864526,0.377157288,1.039206014,,,
,90.52492521,39.72150236,-16.15334182,-0.342563099,-0.017166565,1.360870234,,,
,94.0044406,94.02947886,-15.50309202,-0.287404077,0.426047808,1.195689195,,,
,133.465992,73.91785811,-9.822387369,-0.480230989,0.158700917,1.06430897,,,
,183.0989194,98.50382087,-29.96500514,-0.85646208,1.413516004,0.794731397,,,
,244.5440019,13.34493189,-3.670997889,-1.351770234,1.334546789,0.452190214,,,
,125.6331433,33.07713999,-20.55692355,-1.11816055,2.737095311,1.011609072,,,
,-5.299916901,72.97923865,-8.916999461,-0.633412946,1.971991947,0.612733945,,,
,1.900902077,107.1291275,4.082266995,-0.821280734,0.837910601,0.411140469,,,
,67.35766324,86.45480492,16.39369762,-1.119810499,0.603404893,0.650682365,,,
,79.60177132,70.37107747,8.78126576,-0.851755657,0.945073089,0.65145841,,,
,51.32882515,80.57900814,-9.899278305,-0.657835576,0.938592355,0.580175433,,,
,39.92897038,86.58446527,-29.52050448,-0.661143527,0.611727829,0.534526707,,,
,53.21437196,78.30488135,-40.46944146,-0.654953823,0.442063405,0.521616412,,,
,60.50720795,67.88106019,-43.79838355,-0.522479918,0.472720591,0.468908053,,,
,54.53131545,68.55978599,-41.98159168,-0.367914169,0.488732212,0.396234353,,,
,45.26727545,72.85341712,-35.71051131,-0.29228369,0.404569725,0.359366157,,,
,44.01364379,72.99631279,-24.42484703,-0.25454577,0.28726422,0.345839042,,,
,45.48408268,69.68461673,-15.85150766,-0.207333129,0.21002579,0.33606106,,,
,43.12481437,67.29217416,-10.92401332,-0.136435168,0.142045464,0.307105607,,,
,42.68157422,65.92354988,-7.298565577,-0.090002345,0.061738736,0.293452701,,,
,43.51694668,61.13499781,-5.428030264,-0.07520897,-0.007884608,0.33495423,,,
,39.52337355,50.26564466,-4.698196624,-0.048666157,-0.046048012,0.410451376,,,
,28.03075692,35.65516359,-7.187182582,-0.009565647,-0.092014679,0.499638736,,,
,11.16660365,15.62238183,-12.67313888,0.053169419,-0.139580938,0.58517472,,,
,-5.94558304,-7.240066587,-14.17594988,0.130173089,-0.217873293,0.626018349,,,
,-20.2969726,-30.62700057,-14.30526645,0.201795209,-0.272849745,0.625055148,,,
,-33.1083089,-51.15384384,-14.0779741,0.262473394,-0.272207747,0.611235984,,,
,-45.82464879,-68.03197727,-9.595152308,0.27671213,-0.179712742,0.617310907,,,
,-59.71429166,-83.82063146,-3.053807752,0.229442406,-0.00394475,0.680140571,,,
,-79.34331006,-105.3763923,10.52477633,0.090724465,0.278278899,0.812112742,,,
,-106.7922856,-130.9524262,31.56894319,0.003424975,0.501354332,0.839413761,,,
,-128.3230655,-147.8295283,54.65020419,-0.006419266,0.575905607,0.715413558,,,
,-134.4565214,-151.6503546,76.60651986,-0.075296228,0.622946789,0.570163099,,,
,-123.2907772,-140.9962617,95.92241682,-0.106176351,0.584638532,0.324382977,,,
,-77.86817292,-104.5650268,112.9252832,-0.151432722,0.547627319,0.154332722,,,
,-43.94643584,-43.58232117,121.7970763,-0.180413965,0.6931316,-0.154093578,,,
,4.635858816,67.9094216,106.2345112,-0.020704995,0.550253415,-0.43473894,,,
,207.3721045,261.021466,-11.0967601,-3.39685739,5.704514883,-1.460796126,,,
,-769.6088852,-515.5337304,-19.75678799,-2.881839653,-1.343852294,-3.117920183,,,
,-37.77103943,-109.7688014,37.32545016,-3.115586544,1.48755423,2.170150459,,,
,-152.4659027,-135.231275,0.539554356,1.864907136,0.731599592,1.902769113,,,
,-74.13357672,-83.9299518,-16.45185283,0.356766157,0.535410092,1.541891845,,,
,-116.2658563,-9.332279271,-51.16536029,-0.032930581,0.680368094,0.649373191,,,
,-39.23431635,-29.50818589,-24.16438042,-1.161824465,-0.685266055,1.227441182,,,
,7.55931867,-9.380235839,15.47524627,-0.636019878,0.057682467,0.977494393,,,
,25.84738665,-9.196717457,27.09740867,-0.49237054,0.26879368,0.92643894,,,
,26.75838954,-6.298353155,28.63757652,-0.370444546,0.56056055,0.778094903,,,
,23.38853827,-17.42307359,25.98529759,-0.299446687,0.617527421,0.751713558,,,
,18.23060031,-19.34322705,17.7256526,-0.231616106,0.712999083,0.744135474,,,
,11.5840607,-18.96163716,9.558024643,-0.242802548,0.621895515,0.775304893,,,
,7.595357715,-14.85908746,6.703663499,-0.269697859,0.557092762,0.799110703,,,
,5.504462834,-8.992343411,6.667280679,-0.351779511,0.461555861,0.834996942,,,
,8.733366488,-6.303910845,9.871833627,-0.403783384,0.449348216,0.840822528,,,
,12.15449748,-6.005629017,13.36590215,-0.393529664,0.452421509,0.835930887,,,
,16.01972806,-6.31307817,13.77528049,-0.368259225,0.453985423,0.81048369,,,
,18.8864078,-4.211411682,14.60211589,-0.332741692,0.484806524,0.791078695,,,
,19.47357495,-0.759054487,12.73347133,-0.294879103,0.509432314,0.776272069,,,
,15.38695348,2.759593924,10.80140035,-0.277545872,0.521717227,0.777455556,,,
,12.92524031,6.468177845,8.585199602,-0.277575025,0.526297859,0.789902243,,,
,10.54706439,7.77761559,6.146404747,-0.283862691,0.527105301,0.785383282,,,
,9.10395559,9.615950676,4.444548208,-0.305952701,0.517100815,0.796749745,,,
,9.725156431,10.13906114,4.820866888,-0.356359939,0.520327115,0.799459837,,,
,11.45571816,8.827331566,5.400184515,-0.354744648,0.518839042,0.783873802,,,
,12.50285582,7.9132347,7.208324725,-0.374438328,0.5142684,0.784313863,,,
,11.99641843,5.451063167,8.261650335,-0.345218145,0.529704893,0.758803772,,,
,11.38490057,4.640614366,8.400134234,-0.326330683,0.534251172,0.76537788,,,
,10.54437149,2.889483457,7.606129322,-0.334153721,0.557461468,0.753164628,,,
,7.859835034,2.78056418,5.459084576,-0.31840897,0.558946381,0.755917839,,,
,4.468268661,2.783085194,3.509652974,-0.313690418,0.560463405,0.758922528,,,
,1.371660962,2.216372639,1.251798191,-0.316812334,0.557431702,0.747328033,,,
,0.121237869,2.874758441,-0.663255944,-0.323147808,0.548155556,0.757559429,,,
,-2.335605156,2.805258661,-1.571222162,-0.331030581,0.547398267,0.760069623,,,
,-2.569773007,2.603233742,-3.17086303,-0.323164934,0.545049541,0.762994903,,,
,-3.688072031,3.311925239,-3.437861362,-0.327913863,0.541948318,0.770870234,,,
,-3.60012301,3.286600504,-4.208489597,-0.320065851,0.548048726,0.783140367,,,
,-2.68579696,3.736372374,-4.44832973,-0.345279409,0.540402956,0.785254842,,,
,-2.22124278,1.32416276,-3.43069939,-0.370461876,0.532801427,0.77570897,,,
,-1.954473631,-0.930139685,-2.210070103,-0.381495311,0.52434893,0.775944037,,,
,-2.549891371,-1.507853029,-1.143165393,-0.359417431,0.542040163,0.771588685,,,
,-3.874397906,-1.860336665,-1.113428883,-0.338928033,0.551242406,0.769584913,,,
,-4.209349033,-2.163087564,-2.61371887,-0.30744261,0.55420632,0.776646075,,,
,-4.10432587,-0.147364745,-3.266890756,-0.316187666,0.526380734,0.798555861,,,
,2.496491705,5.788363421,-3.031806173,-0.287227013,0.509089806,0.860047095,,,
,11.93900806,14.19663366,-3.453846885,-0.309333537,0.496750561,0.876850561,,,
,23.20289994,24.50655081,-2.86513275,-0.309632722,0.439313863,0.970800204,,,
,41.91180542,42.69240312,-2.206976131,-0.319112334,0.488606116,0.99754159,,,
,79.22665585,51.75923104,-6.950264534,-0.215930989,0.217549439,1.201424771,,,
,110.4788107,69.54498692,-3.527471962,-0.385894393,0.445535168,1.219737615,,,
,159.4476227,65.61128788,14.87180712,-0.630845973,0.495181855,1.541009684,,,
,182.7000262,53.2680008,9.917211884,-0.858038022,0.498401325,1.6845579,,,
,196.015107,0.665146704,14.73532858,-1.670737615,1.051679715,1.253325688,,,
,236.1005521,-58.51726824,35.82326941,-1.250026809,1.561367686,0.764350357,,,
,201.7056092,-22.58078237,28.97241305,-0.197964526,2.898454536,0.046506626,,,
,25.19822546,78.88133419,5.165959368,-0.073010805,2.351131193,0.266453721,,,
,-0.741407387,121.036704,-7.558115459,-0.816679511,1.047267482,0.524933435,,,
,47.45946927,77.31698752,-31.25759792,-1.115244648,0.620111927,0.715905505,,,
,59.92846329,39.55247981,-61.42136212,-0.743084404,0.769853109,0.598889602,,,
,36.62621246,46.42613989,-95.08177314,-0.43076157,0.754931193,0.423062283,,,
,21.866304,52.16379654,-117.1631082,-0.413514169,0.517484506,0.376342712,,,
,25.34622046,45.25696221,-122.6316466,-0.380511417,0.369363201,0.35664475,,,
,27.34481184,38.04640295,-116.4488017,-0.232255657,0.347630275,0.275490622,,,
,21.45555055,41.01483999,-99.80621124,-0.077634251,0.324431193,0.169314271,,,
,13.26357189,50.6655692,-78.21080168,0.023347503,0.19803527,0.062604281,,,
,11.20052275,62.10003063,-55.90205968,0.095902956,0.022312232,-0.031894393,,,
,14.87896909,75.33942369,-37.19642006,0.125011825,-0.093377982,-0.057658614,,,
,19.09622495,85.44387818,-24.31564128,0.136710296,-0.182943323,-0.0433316,,,
,22.5790062,91.80617343,-17.23353915,0.149123344,-0.27569684,-0.002598369,,,
,27.01329846,90.90359301,-14.55410202,0.09053945,-0.268254638,0.114571967,,,
,24.10324582,77.04798384,-10.00619223,-0.031238022,-0.126845872,0.346155963,,,
,2.495861451,46.09411084,-5.537236019,-0.141925586,0.040815291,0.561992355,,,
,-26.02700891,5.569780022,1.733140034,-0.157163914,0.112884913,0.688406014,,,
,-54.01038222,-35.84567206,11.47055776,-0.146985831,0.168237207,0.728702752,,,
,-80.76384432,-73.08449099,21.35791855,-0.082226096,0.233015596,0.681491437,,,
,-105.8397433,-96.85318676,30.54850535,-0.012650459,0.282501631,0.595274618,,,
,-122.6135411,-110.0766516,37.5108593,0.061625484,0.236408257,0.487776045,,,
,-117.126267,-118.8025123,42.35579041,0.001801427,0.216599083,0.470445566,,,
,-102.3522638,-131.0570483,47.48015305,-0.18881366,0.434380428,0.551394597,,,
,-95.06028723,-141.701229,49.73554411,-0.253282059,0.749053619,0.611001631,,,
,-93.25753282,-137.17555,47.90345426,-0.26252946,0.886502854,0.578834251,,,
,-62.40026051,-123.6536887,51.78925403,-0.476883486,0.89541631,0.635041488,,,
,-25.40666751,-117.8097484,61.38148425,-0.726259939,1.207797961,0.632010499,,,
,54.71970397,-94.85614236,54.96492991,0.089626504,2.821876656,-0.325538532,,,
,-392.5774459,-23.80828715,-84.31761505,-5.979019368,5.503798369,2.838717635,,,
,-84.04563198,-109.3590793,-18.8796469,-1.656805607,-0.833517941,0.444018654,,,
,-128.6882688,-198.7548192,-44.27628765,0.184203874,0.100523547,1.436150459,,,
,-42.20911322,-133.2055254,-9.165892328,1.20203476,0.364138022,1.694849949,,,
,-85.55411526,-46.83139293,-22.01120502,-0.385071662,0.668584608,0.982296636,,,
,-77.58908518,-38.48735127,-24.84218949,-0.348511723,0.341532314,0.752292049,,,
,-28.11257529,-23.12451932,1.801207421,-0.674288175,-0.200953211,1.069583894,,,
,1.232718696,-19.74091706,18.96908561,-0.529208155,0.279942813,0.863560754,,,
,13.6938059,-22.60971674,23.4885194,-0.405472273,0.398344241,0.86719001,,,
,11.51404526,-21.90778614,18.17725794,-0.17964475,0.740568298,0.755441692,,,
,0.289916644,-13.67644527,8.054296909,-0.171857288,0.680328135,0.76913792,,,
,-4.367771864,-12.70631314,2.494486353,-0.263423038,0.580149337,0.816113761,,,
,-1.316599717,-11.3112182,1.673265945,-0.340693272,0.507833333,0.827061672,,,
,1.293566814,-6.015140116,3.751670347,-0.309245566,0.490713048,0.841857492,,,
,4.906352191,-0.740834429,4.924400362,-0.380958104,0.456194088,0.848088787,,,
,11.28142439,-1.858732383,9.06648415,-0.378595311,0.470824771,0.852727421,,,
,15.238672,-3.495214438,9.364765978,-0.343095515,0.495457492,0.837974618,,,
,18.82790881,-2.394848992,10.81010931,-0.328103772,0.496223649,0.827529154,,,
,20.57703437,1.827506183,10.8142919,-0.334368807,0.472410601,0.80663792,,,
,24.32652747,4.959981041,12.12344317,-0.317807645,0.478556779,0.800053823,,,
,26.84192679,7.571350784,12.79752802,-0.337470336,0.490979103,0.794307849,,,
,28.64135804,9.411691222,13.34854153,-0.306000102,0.49546208,0.807590826,,,
,31.1479338,10.3432633,14.01019319,-0.335890928,0.505618043,0.797409786,,,
,29.42396109,10.66818767,14.45245931,-0.313761672,0.532627421,0.77674791,,,
,31.73934084,11.06020539,15.82538078,-0.329505097,0.532685117,0.773997655,,,
,30.65799759,10.94653056,15.29613967,-0.323152497,0.545067278,0.758330785,,,
,29.31630232,10.16616205,14.60377747,-0.313659327,0.560507849,0.747262181,,,
,26.25630662,10.47120478,14.2055718,-0.308873293,0.582921916,0.731650561,,,
,22.85946904,10.11906492,12.25442132,-0.308813558,0.589940877,0.711452701,,,
,17.53732138,10.23520346,10.48604438,-0.291465851,0.619195107,0.712669113,,,
,14.14105675,8.508652441,8.525783879,-0.330905912,0.616141692,0.735327115,,,
,11.8569032,4.402092036,7.177155821,-0.333236697,0.610031091,0.721376656,,,
,7.772000604,3.176248833,6.647284452,-0.307222834,0.613070336,0.71301631,,,
,4.471992887,2.351418791,4.280911462,-0.313549134,0.597644241,0.717794292,,,
,1.78424787,0.725364569,2.432091249,-0.308806728,0.607669623,0.714596534,,,
,-1.710508202,-0.233193823,0.679527945,-0.304080632,0.608427217,0.714490316,,,
,-4.407076769,-0.005614986,-2.183255678,-0.307225688,0.614607034,0.714574108,,,
,-7.305842141,-0.737396682,-4.749419051,-0.294629766,0.613021814,0.71583843,,,
,-11.12019407,-1.064154513,-7.529754048,-0.297802752,0.61068736,0.723679409,,,
,-12.04391663,-1.181782748,-8.210714387,-0.332516106,0.59452528,0.741540061,,,
,-13.47310255,-3.409328064,-7.989380791,-0.350641488,0.591480836,0.745056677,,,
,-14.72673421,-6.004311214,-6.482444494,-0.381369521,0.582308461,0.747293884,,,
,-17.52586222,-9.835565399,-5.522109934,-0.371888379,0.588487054,0.737761978,,,
,-18.21644825,-9.904721404,-4.454345787,-0.351444648,0.582986646,0.748167584,,,
,-17.64268832,-9.782795986,-6.567127656,-0.211362997,0.541590928,0.772876249,,,
,-16.91938639,0.373797666,-8.998531356,-0.214639348,0.549124159,0.822713965,,,
,-7.928017011,5.601349997,-8.781838718,-0.328194597,0.459885219,0.850002345,,,
,10.28831665,12.17455101,-4.730683331,-0.315784098,0.43492314,0.913410398,,,
,27.84133707,22.04856187,-1.225041062,-0.318961468,0.437204893,0.924369725,,,
,47.52364054,33.50496758,4.229345261,-0.353661468,0.478071152,0.955556167,,,
,65.22792182,57.02792174,0.411269105,-0.125669011,0.364344139,1.067510499,,,
,112.1684632,101.5969335,-8.327483186,-0.024373394,0.367466871,1.180249949,,,
,148.1959921,130.4820278,-13.08309018,-0.254758104,0.521989704,1.092526911,,,
,199.7344625,155.447747,7.121407027,-0.541158104,0.504739042,0.987089093,,,
,262.4191965,114.0430092,23.97467409,-0.838065647,0.403574822,1.251729154,,,
,210.5701257,109.8931332,34.54162012,-0.896906116,1.033127829,1.05236106,,,
,213.3545287,61.1093866,49.23982103,-1.688321713,1.260551376,1.10038736,,,
,212.2754773,-2.111750546,65.14094683,-1.123018349,1.684197044,0.406620795,,,
,175.314371,7.837776158,82.93409386,-0.157217839,2.124612844,-0.145444037,,,
,60.15936528,109.2640256,21.5717464,-0.423875229,2.783790928,-0.054124159,,,
,-33.91377296,151.4355527,-15.52257259,-0.717717941,1.391720387,0.123969521,,,
,-25.09578061,116.2267233,-62.02061867,-1.211356575,0.706278084,0.438590724,,,
,1.11795525,48.74043101,-105.2296578,-1.161365036,0.642366972,0.572579205,,,
,-4.288531801,8.260332532,-136.2302269,-0.737953007,0.772782365,0.426373394,,,
,-27.52214228,2.78829911,-157.2357764,-0.376707339,0.751686544,0.212884302,,,
,-44.73918025,13.95553302,-161.6784911,-0.184347095,0.578055657,0.082233435,,,
,-45.26068643,22.53930022,-148.9399778,-0.089878593,0.359696738,0.026017431,,,
,-31.09585194,25.97091635,-121.5334584,-0.011188379,0.202978084,-0.000180224,,,
,-14.8056305,24.80597856,-87.65028136,0.088039959,0.122555963,-0.0251421,,,
,-3.219106076,27.06784404,-50.51155815,0.196757187,0.091465749,-0.048669113,,,
,0.354546284,35.28331398,-19.50250932,0.273149847,0.062733435,-0.058240163,,,
,-4.781676575,44.74084183,4.456007364,0.303755454,0.015491845,-0.032601631,,,
,-12.32609834,48.96342619,20.11706385,0.265663609,-0.040277268,0.058326504,,,
,-17.72444939,45.16162203,30.03931776,0.178644241,-0.122236188,0.178302345,,,
,-18.78115545,26.27882387,36.92500995,0.075827217,-0.182643425,0.32277737,,,
,-16.82857258,-6.72686829,40.25555632,-0.053722324,-0.155132518,0.499744546,,,
,-25.56612166,-51.47378347,41.2997719,-0.183107339,-0.007154332,0.632795719,,,
,-52.63356464,-92.24528828,35.53197767,-0.157755352,0.14398318,0.624740469,,,
,-81.62723442,-116.6343255,25.73336804,-0.07317686,0.090247299,0.490563201,,,
,-86.38759697,-129.9374314,19.64420178,-0.08794475,-0.061197146,0.368564832,,,
,-66.65727963,-142.0035788,15.10162049,-0.193475127,-0.026212232,0.379589704,,,
,-48.16563975,-153.7610165,15.50131585,-0.308459429,0.310021713,0.488584302,,,
,-46.68907022,-157.8413928,20.3009833,-0.358807849,0.684663812,0.588407339,,,
,-50.17591947,-151.6249726,31.34434373,-0.470648114,1.15955107,0.744240571,,,
,-61.09907336,-148.5240104,59.13377082,-0.645270133,1.641877574,0.819124261,,,
,-65.6178769,-137.2140527,93.1409932,-0.606745056,1.51568104,0.507072375,,,
,-37.7850769,15.23895848,-28.00090581,-1.4032737,3.978443425,-0.652245566,,,
,-387.1238617,-54.61559754,-46.94369266,-3.109768807,2.800916004,0.406525994,,,
,-148.9936066,-147.7965259,-6.053814768,-2.13350999,0.00658736,1.395529052,,,
,-153.5144155,-172.3863848,-5.806526183,0.137159021,-0.042688685,1.607952294,,,
,-98.88644209,-103.2472239,-1.889843991,1.095780224,-0.343804281,1.739416412,,,
,-94.32226029,-31.7629467,-13.39718564,0.069901733,0.87567421,1.134011009,,,
,-48.20385604,-19.69983598,-15.59316099,-0.673459837,0.184658206,0.882209276,,,
,-21.22837279,-15.51993698,-0.342456874,-0.656636391,0.04983945,1.027697248,,,
,5.073312093,-16.49247554,15.70271052,-0.617732824,0.182680428,0.952448012,,,
,16.68676553,-23.30225082,21.11131751,-0.40061998,0.450128135,0.836088073,,,
,10.24431349,-19.60386555,15.14109729,-0.149641081,0.726721407,0.722083282,,,
,-4.79451083,-11.93144501,3.009632706,-0.090507747,0.743589602,0.702112538,,,
,-22.23230944,-6.043558823,-8.139724917,-0.228635882,0.583320082,0.766355963,,,
,-24.27198189,-1.930352108,-10.5537107,-0.326520999,0.483133028,0.820471662,,,
,-20.15155591,2.574700444,-9.28180169,-0.339224363,0.446045158,0.847117431,,,
,-16.04293286,6.9154287,-8.319003411,-0.31880265,0.453610092,0.869986137,,,
,-11.02324961,6.608609801,-6.244896192,-0.355799592,0.442960652,0.8599263,,,
,-4.993327185,3.412135557,-3.462040181,-0.327383486,0.458375739,0.840653109,,,
,-1.500576465,6.792586549,-2.411923134,-0.31713211,0.45374159,0.834191743,,,
,1.987647887,7.697000428,-0.862702552,-0.343861162,0.467756881,0.820836901,,,
,2.50050241,7.855480554,-0.597308501,-0.334398063,0.476991233,0.819084608,,,
,4.341988763,7.46672869,0.197154777,-0.337523242,0.484740367,0.812175127,,,
,6.19143923,7.284871886,1.094635868,-0.354886952,0.458544852,0.817960958,,,
,8.85701078,4.934770898,2.809441253,-0.361994597,0.443129969,0.820424771,,,
,12.63864682,3.894737908,4.241721149,-0.347016514,0.456973293,0.819333028,,,
,16.277158,3.47957269,6.038287611,-0.348556575,0.473976758,0.811628338,,,
,17.1432983,0.803630603,6.853262779,-0.361941386,0.474021713,0.810378899,,,
,16.13947624,-0.432869614,7.910198024,-0.365073904,0.475597248,0.804234862,,,
,15.719269,-0.799849082,7.542416415,-0.343750968,0.504893272,0.791369011,,,
,11.83684968,-0.814975168,6.614511266,-0.334279307,0.509517431,0.784943629,,,
,8.770551449,-0.628248222,5.699956033,-0.336640775,0.511066972,0.78500051,,,
,6.50421689,-0.11063815,4.077969811,-0.321653211,0.514138328,0.776891641,,,
,5.45713652,-0.213999736,2.262266558,-0.332744954,0.495587462,0.795763812,,,
,5.566972529,-0.202082214,2.624834251,-0.349298063,0.494075229,0.800802141,,,
,5.670563298,0.406398964,2.579226811,-0.340638328,0.499437411,0.803724465,,,
,4.852723342,0.354145213,2.414100374,-0.345342712,0.50487421,0.797623853,,,
,5.355379215,-0.514859875,2.363049834,-0.345337207,0.506422834,0.796072069,,,
,4.019814595,-0.532277792,1.674927523,-0.331150765,0.503313965,0.791078695,,,
,3.608717377,0.371620426,1.213925681,-0.330362895,0.511016106,0.793407747,,,
,3.33702079,0.547919539,0.286135123,-0.327986442,0.514880632,0.789474516,,,
,2.493111254,0.755903219,-1.317974816,-0.320092864,0.521046177,0.784642712,,,
,1.024162059,1.525270946,-1.332241465,-0.331135984,0.511039144,0.7879842,,,
,0.613064841,1.314823548,-1.596890671,-0.335884608,0.503315902,0.794295821,,,
,1.26497622,1.902047992,-2.303290336,-0.34220581,0.498682569,0.800649439,,,
,3.152012718,3.318342366,-2.369982624,-0.334339551,0.497105097,0.803576249,,,
,4.179784411,5.549382725,-2.493970691,-0.321791437,0.500073802,0.824283588,,,
,9.198608218,9.610965943,-2.141257872,-0.303070744,0.464321407,0.880530887,,,
,22.16687766,19.29544237,-1.940951827,-0.292917737,0.46570999,0.912949337,,,
,34.38457238,35.10157177,-3.096779587,-0.282843425,0.40381366,0.954573598,,,
,63.13272976,55.96949681,-1.715836709,-0.252945872,0.474558919,0.988232416,,,
,84.5300105,92.93690564,-11.01362392,0.166098777,0.168792049,1.138368094,,,
,132.4845153,130.7844922,-16.33754775,-0.176174924,0.531575841,1.139108359,,,
,159.3792688,161.2079782,-20.18392802,-0.370934455,0.624626198,0.961838328,,,
,172.7687195,167.9548427,-24.20488853,-0.379181753,0.813637003,1.162166972,,,
,165.5618845,189.7274108,-9.07164077,-0.761395515,1.105214985,1.055631295,,,
,137.1682734,171.0220004,16.71610097,-1.247254944,1.981510092,1.020229562,,,
,115.2462206,82.43178176,82.62910842,-1.144037717,1.993953517,0.710082875,,,
,71.0386306,90.33504699,72.70072386,-1.112121611,2.423563201,0.692317839,,,
,32.78527529,120.2565646,38.80081648,-0.690094088,0.927586239,0.248356779,,,
,53.52245136,113.0995769,-11.8148481,-1.162012538,0.644110194,0.520517125,,,
,42.96507373,57.62396974,-56.44327561,-1.216058308,0.806121203,0.75759368,,,
,18.45491329,22.87058442,-89.01088423,-0.823374006,0.727831193,0.549494393,,,
,0.281494165,15.28227409,-105.5418052,-0.517266667,0.635238736,0.316912232,,,
,-9.772941112,17.11201481,-104.8095652,-0.337477676,0.541038838,0.200695209,,,
,-13.93101042,18.39246089,-88.16113053,-0.200332008,0.437555861,0.125075331,,,
,-13.65828251,20.80828013,-60.59303703,-0.071052294,0.326406218,0.043401325,,,
,-10.58866112,26.3299317,-31.10885808,0.041679409,0.23686371,-0.027748012,,,
,-8.625478535,35.2192,-4.952417998,0.096026402,0.152736391,-0.057135168,,,
,-8.470092381,39.20182964,15.3336684,0.095966463,0.057891845,-0.065092559,,,
,-6.234812135,42.67212041,27.51480842,0.125882875,-0.08550683,-0.107253109,,,
,2.70630885,49.54772855,30.40285948,0.177845973,-0.242895209,-0.131446177,,,
,16.87927935,50.6697518,28.75772577,0.106701121,-0.258470438,-0.036576758,,,
,24.88241113,36.34351509,27.43419326,-0.018108359,-0.153092151,0.139039144,,,
,17.68296725,13.15310562,26.03686379,-0.078232314,-0.021561162,0.282916208,,,
,0.701357637,-10.83944475,23.97639297,-0.081510398,0.035275127,0.349174108,,,
,-15.31688074,-33.21252992,21.58034076,-0.092542915,0.052246993,0.357232008,,,
,-29.17741735,-53.22628948,19.85505025,-0.141357085,0.115585321,0.37246055,,,
,-43.79740952,-73.80045906,21.20843386,-0.241360754,0.246873293,0.409199388,,,
,-62.19084444,-94.17575498,22.09537252,-0.283028338,0.364202039,0.419706728,,,
,-80.20125706,-110.1230612,26.20880842,-0.313562691,0.470865749,0.386409786,,,
,-88.63571147,-117.0242805,34.21784167,-0.307860041,0.494232314,0.322585525,,,
,-79.99390364,-114.5778653,45.00233976,-0.32336473,0.497712742,0.231222528,,,
,-60.43066079,-97.75221484,54.40692631,-0.315265545,0.599701121,0.179934659,,,
,-40.51453324,-71.62493831,63.09050277,-0.471363507,0.93890897,0.350503058,,,
,-49.8049866,-51.89805872,72.14799148,-0.644715392,1.281353211,0.495042406,,,
,-4.060150824,-3.457800294,33.38854255,-0.707050866,2.253082773,-0.627188379,,,
,-391.1954717,-78.47430497,-16.62247966,-6.98048634,5.609376656,3.65150948,,,
,-67.25590594,-175.077453,25.56107964,-0.193166565,-1.202939551,-0.113984302,,,
,-192.7396791,-221.1957426,0.872729314,0.351171764,0.678604281,1.618476555,,,
,-102.1431342,-132.4817078,-0.990242957,1.01088369,0.131241692,1.832450459,,,
,-121.1667654,-82.08789249,-30.54667189,0.061112334,0.967553517,0.915188073,,,
,-118.0978888,-38.74237478,-53.69651594,-0.107517125,0.390124465,0.76554842,,,
,-55.2201826,-26.46268602,-24.10570954,-0.865259531,-0.434363507,1.139552803,,,
,-10.54660602,-18.52762163,7.089722461,-0.694121713,0.084302548,0.919795107,,,
,7.72616398,-15.93143527,19.39593917,-0.56638369,0.249007951,0.914095923,,,
,12.22766419,-21.17600445,22.09445579,-0.28234159,0.560921101,0.816507441,,,
,3.949799152,-18.16631444,14.85880098,-0.156061366,0.712701835,0.76262263,,,
,-3.124625336,-13.65988679,4.8709434,-0.176585423,0.677256575,0.769239653,,,
,-8.3924566,-7.532446949,-1.99480986,-0.266539755,0.570961672,0.800620489,,,
,-8.373950063,-2.313947351,-2.932569883,-0.31391264,0.510840673,0.826456983,,,
,-3.438491616,0.9272176,-1.451989644,-0.391204485,0.427708257,0.842048114,,,
,1.804244097,1.61224594,1.557012808,-0.384871254,0.441603466,0.834157696,,,
,6.063383163,1.310640956,3.875257343,-0.365946789,0.453136188,0.829084913,,,
,9.806745621,1.553976132,5.574707459,-0.370658716,0.457021407,0.825313354,,,
,12.24691558,1.098016319,5.965350084,-0.3469737,0.487850255,0.813174006,,,
,11.03046888,2.52697306,5.908913741,-0.342208665,0.500219266,0.802207136,,,
,9.49900999,1.815645957,5.829730974,-0.32329001,0.50018787,0.795557288,,,
,8.362204428,2.339845044,4.632994027,-0.296553109,0.495428644,0.808930071,,,
,7.415678151,4.771420631,2.326609719,-0.32802314,0.486323547,0.794083384,,,
,5.409638319,6.408704826,0.667152057,-0.332742915,0.495590418,0.794986442,,,
,3.615306391,5.534886893,0.123185926,-0.353198879,0.496450968,0.787681346,,,
,1.069253837,7.105879871,-0.464783363,-0.359469113,0.495742406,0.776163099,,,
,-0.899772921,5.992336396,-2.09404615,-0.349230581,0.512661162,0.781404077,,,
,-3.914333065,5.01796437,-2.657779324,-0.346866871,0.506492457,0.779006116,,,
,-4.696592342,3.521856975,-3.298460731,-0.324829052,0.511029664,0.785508461,,,
,-5.505608749,4.591110812,-3.454935505,-0.346894088,0.498749541,0.78676473,,,
,-5.108950068,3.410645867,-3.715459414,-0.353207136,0.496439144,0.790790724,,,
,-5.318194254,1.07641581,-3.478770549,-0.362678797,0.494125994,0.797998063,,,
,-6.133570493,-0.135046152,-3.241737909,-0.367394801,0.495694292,0.794999286,,,
,-5.01320882,-0.492285338,-3.076382289,-0.351663507,0.490996738,0.800850051,,,
,-5.424019559,-0.245168641,-3.337880227,-0.340635882,0.492507238,0.800601529,,,
,-5.257632615,0.934264981,-3.019201101,-0.335942304,0.481662283,0.809023853,,,
,-3.065610683,0.280348249,-2.581174867,-0.364298777,0.475577166,0.80888104,,,
,-0.907794331,-0.24694481,-1.270247432,-0.369030887,0.467877676,0.808973904,,,
,0.735334034,-0.476815477,-0.272097657,-0.365078084,0.475591335,0.805789602,,,
,1.852659031,-1.086958233,-0.106856629,-0.361128746,0.484070438,0.80416157,,,
,3.18335351,-1.077217951,0.374198736,-0.35798053,0.486369317,0.80564893,,,
,4.824361931,-0.705540229,1.06799333,-0.353248318,0.489446789,0.803992355,,,
,5.229844162,-1.064211809,1.019177326,-0.364286952,0.474823649,0.804215392,,,
,5.397835388,-0.581781345,1.847330523,-0.346925076,0.481756575,0.792950765,,,
,5.958188112,2.190532242,1.053153723,-0.334423853,0.512444241,0.819314577,,,
,8.399733164,7.176124497,-0.36858375,-0.309295311,0.507642202,0.84516106,,,
,11.98507386,15.13021109,-1.236958584,-0.299901631,0.493665545,0.862020489,,,
,18.32181519,23.03210122,-1.963125293,-0.342518145,0.455145872,0.883127013,,,
,29.86811797,35.66519035,2.767214263,-0.374121916,0.439686646,0.916464628,,,
,63.78022936,49.46997817,6.885577599,-0.391643527,0.405561672,0.978982671,,,
,94.27287133,88.34797207,-2.608504954,-0.108705199,0.287556779,1.158080122,,,
,114.3794501,102.9709436,-10.322866,-0.230812538,0.478156983,1.233527523,,,
,151.5991895,106.1505729,-37.52890747,-0.312025994,0.133951376,1.750844343,,,
,210.9102908,111.1258519,-32.91378972,-0.769011213,1.065548624,0.945348114,,,
,216.3737871,111.2193013,-13.54328988,-1.359991539,2.054453517,0.792079205,,,
,199.1969708,68.84626489,37.36870847,-1.283904077,2.128104791,0.634247808,,,
,99.63667302,76.80367463,48.71854402,-0.982979001,2.560286239,0.741721509,,,
,48.13664809,116.4474266,50.88839249,-0.739094292,1.308063609,0.435220285,,,
,60.34821217,117.0609498,30.50994529,-1.04876371,0.535689297,0.544929154,,,
,82.42221336,76.84458382,-2.667806086,-1.088621916,0.459621407,0.701152497,,,
,71.95335772,49.70128123,-39.64919509,-0.781159633,0.514626504,0.598640367,,,
,51.72193149,42.93109734,-74.60666797,-0.55088685,0.421931906,0.452514577,,,
,43.59395221,34.54677674,-96.29289133,-0.456297452,0.275392966,0.373894088,,,
,43.0904369,23.82622073,-103.5426409,-0.326223445,0.213556065,0.305512844,,,
,38.60984964,17.6835975,-101.4488239,-0.170828033,0.218018247,0.234193374,,,
,29.09863565,17.71384967,-93.00239471,-0.032030275,0.195532722,0.155585219,,,
,20.93387248,21.97722863,-79.26298138,0.086249643,0.108335576,0.071877064,,,
,18.57494794,30.32195784,-66.33550653,0.163490724,0.019596738,0.02019419,,,
,21.67648308,37.34361292,-49.53197221,0.177621611,-0.03674893,0.018984404,,,
,28.75537664,39.86961195,-31.05952641,0.171185729,-0.056953925,0.063398675,,,
,29.09875025,37.93805663,-12.60484231,0.152142508,0.006072273,0.137023853,,,
,17.32847826,36.64999021,2.241410895,0.155958206,0.066747604,0.202350255,,,
,0.23743371,32.85855659,12.82967095,0.114789501,0.078117431,0.287261162,,,
,-17.78495374,22.48206174,21.14219994,0.041202446,0.049338736,0.407811927,,,
,-30.55492248,-1.741447923,28.45062039,-0.096259837,0.069936697,0.575777166,,,
,-46.02747585,-37.90551263,36.35061976,-0.195775229,0.131459021,0.702537003,,,
,-65.98926814,-73.04478502,44.08629484,-0.170563303,0.188408053,0.716842712,,,
,-86.66238753,-94.88043577,48.72943022,-0.138128746,0.284048114,0.692970948,,,
,-107.2430315,-108.2074341,53.29240881,-0.17656208,0.412272885,0.67544261,,,
,-124.234496,-118.3872898,61.17338598,-0.258376656,0.572889704,0.693168502,,,
,-136.5984669,-126.7423896,74.22244247,-0.341692661,0.722830887,0.679815189,,,
,-141.7387577,-133.547352,87.27063952,-0.368218043,0.786442304,0.605922018,,,
,-126.5257542,-131.1021973,98.60443226,-0.426207441,0.68225525,0.464013965,,,
,-71.19401675,-117.0173477,102.2835089,-0.407604689,0.387066769,0.185510194,,,
,33.97204277,-83.24526724,112.4784334,-0.493121101,0.3554842,0.032093272,,,
,165.8151318,87.45593407,-55.34588954,-1.641223242,5.015898369,-1.481804179,,,
,-533.5432836,-136.5222635,11.57483608,-3.944417533,3.661084098,0.013864526,,,
,-5.414623051,-111.3239807,35.18316096,-2.038756779,-0.457783078,1.72375841,,,
,-170.6484892,-171.9595312,-14.20030059,1.844446789,0.432405097,1.484615087,,,
,-98.63273638,-66.132393,-31.38771664,0.185306218,0.027120183,1.865222324,,,
,-111.789337,-58.31879566,-58.40943758,0.275796636,1.170609378,0.486435678,,,
,-98.2455315,-15.61046431,-62.4452377,-0.935967686,-0.295955148,1.098843935,,,
,-39.40987061,-13.36802209,-17.59559118,-0.908869521,-0.182327319,1.014498165,,,
,-11.57947704,-7.361476343,4.181331397,-0.607313354,0.213005607,0.873143629,,,
,-1.834152494,-5.66294296,9.828804497,-0.350349541,0.449069113,0.864638022,,,
,-3.60052408,-7.201850302,9.029127302,-0.370573394,0.523449134,0.793731397,,,
,-1.648514168,-12.67852468,6.906146784,-0.272785831,0.628119368,0.777715189,,,
,-6.262371405,-8.492265848,-1.5082541,-0.238886646,0.637312232,0.767632518,,,
,-7.689838456,-4.227798274,-3.914734135,-0.339132416,0.503237513,0.810076045,,,
,-5.667526622,-0.287510222,-3.136772041,-0.375414475,0.467829154,0.819384404,,,
,-3.177566636,1.189918749,-1.189804157,-0.397539246,0.431581549,0.83536422,,,
,1.929378079,2.098687108,2.38442116,-0.425906626,0.40776157,0.833632416,,,
,5.735479417,2.114386151,5.05950381,-0.38803629,0.446265545,0.820407339,,,
,10.33547107,2.747619107,6.310385268,-0.381709684,0.452447503,0.812501937,,,
,13.83784748,2.20984092,9.081954011,-0.38004526,0.464845158,0.80377788,,,
,17.54986915,1.524067735,12.05858435,-0.376885219,0.466390418,0.800599592,,,
,20.33587643,0.014438536,14.60578282,-0.387919878,0.468721814,0.804742304,,,
,21.70954274,-1.762017107,15.02117722,-0.378517737,0.464772477,0.821621101,,,
,22.46206551,-1.924278755,14.82505377,-0.353244954,0.493303466,0.803999898,,,
,20.93112228,-0.155787224,14.15033867,-0.358717737,0.50185158,0.791704281,,,
,17.87714264,1.920554529,13.45493979,-0.342163303,0.504906422,0.786669011,,,
,16.45580624,2.941278841,13.29124575,-0.364207951,0.514226707,0.787189806,,,
,14.59524039,2.59647284,11.77204815,-0.370498165,0.509637819,0.781882977,,,
,12.35010527,0.726510484,11.98432902,-0.359429766,0.525073802,0.770778491,,,
,10.09494339,-1.966734928,11.88234253,-0.359382773,0.539008053,0.757590316,,,
,6.402058515,-4.025658764,10.7369426,-0.360950255,0.552890724,0.759207849,,,
,4.521954807,-7.226888557,9.093298575,-0.353035882,0.571412334,0.75051315,,,
,1.045762568,-9.321679552,8.462529338,-0.362517533,0.545202752,0.753787258,,,
,-1.931841798,-10.21623856,7.231586811,-0.343606218,0.55825739,0.754159021,,,
,-4.752054657,-9.492535567,5.653661043,-0.330246279,0.543539348,0.760044139,,,
,-6.976219522,-8.992572595,3.466910323,-0.323171865,0.546580326,0.766107339,,,
,-9.27744721,-8.604852055,2.512649115,-0.342878695,0.526583078,0.766517431,,,
,-9.454032803,-9.558483009,1.37005668,-0.327966871,0.523383078,0.784826809,,,
,-8.227272868,-7.539265147,0.938332981,-0.339843629,0.495593272,0.799812232,,,
,-6.913824418,-7.352137131,0.597709572,-0.317765036,0.514055861,0.79545841,,,
,-8.045358768,-5.701674907,-0.485982802,-0.304360754,0.512497859,0.788931295,,,
,-8.932755801,-3.515611735,-2.333370621,-0.294924057,0.510138532,0.793375433,,,
,-7.366060006,-3.386065978,-2.928731066,-0.302808665,0.490118654,0.790406728,,,
,-5.431468011,-1.169979818,-3.450466434,-0.294981244,0.506204893,0.813579205,,,
,-3.377528907,2.135757477,-3.346417298,-0.295794393,0.490762793,0.818231397,,,
,0.71734316,5.347071327,-2.802221984,-0.309205199,0.484607441,0.824743629,,,
,6.030896456,7.183171878,-2.148133366,-0.343933843,0.472275331,0.849608053,,,
,14.3385553,13.93324496,-0.183289199,-0.321935066,0.484460754,0.873227217,,,
,23.53722082,22.18865005,-0.461632096,-0.317404179,0.420996432,0.925857187,,,
,42.72838487,40.4853124,-1.031381327,-0.290622324,0.488718756,0.945589399,,,
,78.85790022,63.92690656,4.003141523,-0.270598471,0.344717635,1.069221611,,,
,69.44586522,108.7631459,-1.627085547,0.07771213,0.23191896,1.247615698,,,
,171.9074494,135.6081093,2.448821616,-0.259643833,0.489418043,1.142322834,,,
,179.4916344,171.2199,0.806552688,-0.527465036,0.682325688,0.92960316,,,
,194.8891876,181.5611007,10.8361216,-0.987497554,1.202385933,0.84083527,,,
,218.7022876,151.3347695,40.53269601,-1.604532314,1.807258206,0.884847401,,,
,186.9873548,90.08082562,80.70402753,-1.370132416,1.925141081,0.735153313,,,
,151.0986536,100.9470848,67.11335404,-1.097070336,2.624248726,0.448907747,,,
,52.56692965,125.5240521,26.57464197,-0.766203466,1.706267788,0.413139042,,,
,33.3241421,142.0608173,-19.37840666,-1.010554128,0.764196024,0.465218858,,,
,61.31742757,108.6585238,-62.45205589,-1.197112538,0.506443017,0.644641386,,,
,65.75956936,64.91096157,-94.56192854,-0.982794495,0.664654638,0.655611315,,,
,44.93851227,45.14202688,-113.1718269,-0.629465545,0.705155352,0.477402548,,,
,20.22369129,46.17850753,-118.2105896,-0.340830887,0.565411111,0.284769623,,,
,8.796563733,52.0869629,-110.8887047,-0.183155046,0.380281651,0.162660245,,,
,7.724788881,53.70665729,-92.85972822,-0.091779918,0.212089399,0.101171662,,,
,13.47860295,51.09757938,-67.46423339,-0.001985219,0.096281448,0.058477268,,,
,19.09358934,48.23473846,-43.7162787,0.100470133,0.015959633,0.004681244,,,
,22.17186239,49.81976891,-26.34373998,0.193451784,-0.052040673,-0.036437615,,,
,24.0071035,53.92667309,-16.57801814,0.253263201,-0.130090214,-0.045727115,,,
,26.65674683,53.86376232,-11.55867867,0.244380632,-0.188157798,0.018101733,,,
,28.41446675,43.97754745,-8.164132919,0.202359327,-0.189975331,0.12321682,,,
,23.31187651,26.82238893,-5.121497843,0.16826208,-0.125492864,0.231390214,,,
,12.29618995,4.923426334,-1.372119328,0.145272375,-0.028569521,0.31916371,,,
,-9.30351679,-18.51501656,2.426762741,0.132575535,0.093053925,0.394313761,,,
,-35.82676445,-41.94119815,9.342878991,0.124655556,0.165431498,0.434279103,,,
,-57.74033747,-64.06911468,17.56350555,0.100972783,0.176207238,0.458937003,,,
,-76.06478826,-86.95809105,27.7893698,0.029286239,0.250351784,0.490254536,,,
,-93.74769821,-109.1642163,37.05615999,-0.047068705,0.372356473,0.515553721,,,
,-110.0439357,-126.4876525,42.98329379,-0.119453619,0.441956881,0.532727115,,,
,-119.1262335,-143.0118127,45.68032072,-0.27221366,0.548763201,0.55818369,,,
,-122.5326395,-155.0199767,46.84394071,-0.379115698,0.679572681,0.523565749,,,
,-118.425105,-154.8968481,44.29124185,-0.459204179,0.759508563,0.458698981,,,
,-99.26705795,-145.765104,44.88769091,-0.54000683,0.730925484,0.331450663,,,
,-47.66286929,-114.663809,40.1214842,-0.557835168,0.575766667,0.174535576,,,
,4.515824158,-73.99612414,31.06015667,-0.875794393,0.790418145,0.165103772,,,
,84.24553696,78.35323899,-97.71583202,-3.057365749,3.882891335,-0.589070336,,,
,-510.3923509,-357.0004338,-14.27547265,-4.21996208,2.007229969,0.060280836,,,
,-9.517516526,-132.1550646,20.58551414,-1.562047503,1.574823547,1.122059939,,,
,-117.2631466,-215.9670444,-46.63074311,0.558774108,-1.02996157,2.073679918,,,
,-109.8702149,-119.7462884,9.084475025,1.443049541,1.195782467,1.064466055,,,
,-103.6918964,-90.03309824,-16.98900077,-0.6625316,0.3786263,0.981058919,,,
,-81.1293341,-37.9967848,-20.83222977,-0.66177156,0.006125892,1.167645668,,,
,-28.12678464,-35.47428082,4.583375882,-0.582955148,-0.131152396,1.100285525,,,
,-2.605353686,-21.93448598,10.36572325,-0.457577268,0.393696024,0.913453109,,,
,9.386309191,-12.93429304,13.21681853,-0.370954027,0.404212742,0.919272069,,,
,10.16845388,-10.45602139,12.6891817,-0.280699796,0.58566422,0.799417431,,,
,5.420467221,-10.49836298,9.075479588,-0.275916922,0.584961978,0.777542202,,,
,2.705277525,-10.20919118,4.97642493,-0.270473598,0.570979103,0.799155556,,,
,1.349602086,-5.411987445,1.754855135,-0.294938736,0.558704281,0.793630683,,,
,-0.280634728,0.088693867,-0.026642537,-0.28709949,0.544761876,0.802752497,,,
,-0.561785118,3.199396328,-0.057181188,-0.353347197,0.492438736,0.821261468,,,
,2.002258311,1.910928838,1.356592172,-0.372268603,0.474747197,0.823212844,,,
,6.207940414,1.246011317,3.413969022,-0.376232212,0.46162528,0.828718756,,,
,8.799371226,1.268471263,6.072779671,-0.383306626,0.460895311,0.823437411,,,
,12.26301569,1.258616389,9.413352799,-0.383227013,0.486432212,0.801720591,,,
,13.73133463,1.196450468,9.328669637,-0.337514679,0.509456881,0.796059633,,,
,12.83316599,2.442519081,9.994389299,-0.33118104,0.514107951,0.785041896,,,
,13.74628883,2.278653151,9.747788264,-0.340684506,0.49634159,0.799215494,,,
,16.70011545,1.316599717,10.24477186,-0.35330051,0.498668603,0.805726198,,,
,17.52225259,2.037781694,10.62091865,-0.340668705,0.500216004,0.794558818,,,
,18.35189547,3.074147754,11.30886907,-0.331193272,0.509468094,0.788142304,,,
,17.54557197,4.960324816,11.26165735,-0.330381957,0.520285219,0.782703772,,,
,17.83497295,4.990691579,10.5984587,-0.327967992,0.534218552,0.767907034,,,
,15.78217976,4.869797484,9.697024204,-0.33660265,0.551233945,0.762695923,,,
,13.82312247,2.615380447,8.985066847,-0.338917227,0.556702243,0.74643578,,,
,9.828575313,1.021526453,8.044270148,-0.323116718,0.577526809,0.734456473,,,
,6.320984987,-0.514974466,5.771747645,-0.30107472,0.582069827,0.739404077,,,
,1.989882422,-0.092532684,2.475750633,-0.288465443,0.591289195,0.739134659,,,
,-1.302619547,-1.060201104,0.417285162,-0.309002548,0.569692253,0.755106932,,,
,-2.864674384,-1.065185837,-1.609381151,-0.320039551,0.562005097,0.756898165,,,
,-3.877434583,-1.110334911,-1.572482669,-0.340554536,0.539669419,0.764318043,,,
,-3.971055886,-1.9073765,-1.014020706,-0.349239959,0.535811417,0.771504383,,,
,-4.595465292,-3.440554264,-1.290702025,-0.353151886,0.54202314,0.763832518,,,
,-6.641841353,-3.802090633,-1.680542509,-0.338928135,0.568242712,0.754231702,,,
,-8.812835734,-4.00806896,-3.516127397,-0.290108665,0.554987768,0.753092762,,,
,-8.946392196,-0.739344739,-6.325683241,-0.242962589,0.543138022,0.789306014,,,
,-8.30869017,3.741185219,-6.435003589,-0.309188073,0.50240265,0.803173191,,,
,-1.565377992,3.511371847,-4.954824421,-0.362027421,0.465476147,0.819074618,,,
,4.606408786,5.070848374,-1.617058785,-0.384870846,0.461686035,0.819587971,,,
,11.16207729,5.430207503,0.994024479,-0.349425178,0.478537309,0.82269949,,,
,18.11039376,8.286287521,1.985470647,-0.343171764,0.486155352,0.842782059,,,
,29.50761293,16.10710413,2.81476976,-0.299996738,0.474269725,0.891522834,,,
,47.73007724,30.98962556,2.348095636,-0.221428848,0.439099388,0.950293476,,,
,65.61793419,54.33547847,1.601760812,-0.265440673,0.544135372,0.94994791,,,
,88.60471445,82.54786301,-7.729429839,0.003125382,0.24947105,1.146128135,,,
,145.3819672,124.0712603,-10.77871123,-0.083514679,0.392239959,1.195799286,,,
,177.8360156,153.1093344,-11.90709431,-0.133836595,0.354757085,1.153343323,,,
,226.2903114,163.5295459,-19.01921942,-0.421063303,0.226929358,1.322878186,,,
,215.3139871,179.552196,-7.199042808,-0.540255657,1.081211111,1.108064118,,,
,226.5184632,181.1029636,10.57439448,-1.272943731,1.346080632,0.999361264,,,
,205.81555,97.33040331,35.99996959,-1.924676656,1.809238838,1.015126402,,,
,191.0079142,48.74828053,58.56648531,-1.024565953,1.886886952,0.172354944,,,
,149.346033,105.1232023,62.2795956,-0.452402141,2.263962691,-0.450923242,,,
,1.468147054,149.785377,15.5006283,-0.765814985,2.140967686,0.089998675,,,
,-38.91019412,155.2740262,-14.62486231,-1.127838124,1.166368094,0.275905097,,,
,-19.04173666,115.1708194,-47.85555499,-1.260847197,0.651906524,0.374317941,,,
,0.89856971,65.5105046,-76.52091996,-1.006456167,0.650393986,0.368515291,,,
,-6.998794059,44.27537091,-99.79658554,-0.649340367,0.7299579,0.259477982,,,
,-25.96702023,42.83472583,-115.1075075,-0.372662793,0.643200917,0.137957288,,,
,-37.34212323,48.69820402,-119.0503166,-0.209654536,0.420818247,0.071620183,,,
,-32.30284483,48.40284428,-111.1389726,-0.104230071,0.195393476,0.039237411,,,
,-16.43179931,43.53419271,-93.33958038,0.017000714,0.048581142,0.011312029,,,
,-1.500347282,39.82022299,-71.2204874,0.163555454,-0.014158002,-0.035681855,,,
,6.309067465,42.74064616,-51.10227764,0.322720795,-0.06613527,-0.0829421,,,
,11.88646783,49.80292395,-32.51856344,0.376156065,-0.111147095,-0.053155759,,,
,13.81086117,48.07723236,-17.13034945,0.327053925,-0.138356677,0.041188583,,,
,8.724199163,39.25139049,-4.874553034,0.292153211,-0.136296738,0.135266463,,,
,0.48586821,24.46249036,3.587403347,0.271434964,-0.154300306,0.220431193,,,
,-6.240197938,6.892395797,9.429109139,0.214510194,-0.16985474,0.298653007,,,
,-12.90839535,-17.8641365,15.01401525,0.138722018,-0.156793986,0.371919674,,,
,-21.06359013,-48.64096554,21.62021862,0.020398981,-0.064265443,0.473517737,,,
,-37.97134548,-82.87324574,29.11106884,-0.077340469,0.089987156,0.554557085,,,
,-65.18563754,-112.5724558,33.81665662,-0.118214883,0.221188991,0.567405505,,,
,-90.70683931,-134.1334878,39.94146086,-0.16844577,0.278595209,0.521246687,,,
,-106.9082523,-149.8662786,47.78307583,-0.267582671,0.308301529,0.495581549,,,
,-113.7025004,-168.1118904,59.24773213,-0.456541692,0.492296738,0.53522895,,,
,-122.7417118,-182.3973899,70.19242923,-0.528657798,0.69792263,0.474312844,,,
,-127.3260044,-176.8113378,80.50973754,-0.482458206,0.729347197,0.28831947,,,
,-105.3123929,-148.7415052,84.72510263,-0.475772375,0.617400408,0.107610194,,,
,-49.95263782,-109.8120024,79.9238309,-0.533923547,0.542257594,0.035720999,,,
,-11.56675738,-73.97269017,62.85484522,-0.992435474,1.167424363,0.296917023,,,
,32.78556177,-20.35633102,-6.129960859,-1.095530785,3.343629766,-1.102640877,,,
,-436.0975438,-140.1748694,20.99391846,-6.020497655,6.236596942,2.657814577,,,
,-90.91579702,-140.7418685,12.45885266,-0.3754842,-0.345098777,-0.006939246,,,
,-229.7168855,-192.5226427,32.49724941,0.798734455,0.070579613,1.313418247,,,
,-123.3924199,-120.9979147,2.221300076,0.180560143,-0.923453415,2.751166871,,,
,-95.67954001,-34.92882499,-21.03562979,0.429831804,2.086045872,0.605977268,,,
,-56.28364957,-24.29318133,-26.50084501,-0.858211315,-0.110823242,1.237350765,,,
,-12.81276869,-9.172366751,-3.113051588,-0.593661468,0.072772783,1.024912232,,,
,14.48723785,-4.973445549,15.25127707,-0.698985219,0.104971254,0.957417839,,,
,32.03109095,-9.552180473,24.50981667,-0.438607136,0.386085525,0.864194903,,,
,28.20848842,-9.294292169,21.17468664,-0.192283588,0.699001937,0.735598063,,,
,13.59863761,-6.171041932,11.59122267,-0.204728542,0.722374006,0.684624567,,,
,5.224515655,-10.48495576,4.497775988,-0.252214475,0.641290724,0.746179205,,,
,1.099506009,-7.391212853,0.298568307,-0.264888481,0.614259735,0.765070948,,,
,-2.394046851,-3.609118447,-2.96179073,-0.275201631,0.580285729,0.782340571,,,
,-2.971072647,0.471830744,-2.989922958,-0.365901529,0.489461162,0.802886239,,,
,0.580520838,-0.86218689,1.934477404,-0.434513354,0.435602243,0.821446075,,,
,6.445202237,-2.840896636,6.267298842,-0.403011621,0.462471662,0.830108257,,,
,9.830236891,-3.302757914,8.213006219,-0.384836391,0.480224669,0.812627625,,,
,11.06375773,-3.278235321,9.207660951,-0.353276555,0.517192457,0.802652701,,,
,12.18257241,-3.220767654,9.584208814,-0.321686239,0.555744343,0.781797655,,,
,9.543356923,-1.26279898,6.783648407,-0.280679817,0.555698981,0.761429766,,,
,7.244249179,1.697158285,5.126998238,-0.276029052,0.530925586,0.781485423,,,
,7.08594094,1.535526891,4.713609189,-0.315423547,0.510988583,0.781567278,,,
,7.024176089,1.920669121,3.995635776,-0.313862895,0.510963303,0.786972885,,,
,8.048051669,4.506599538,3.671742734,-0.337484608,0.515663099,0.786743221,,,
,7.760713335,3.732648148,4.948579181,-0.336661876,0.532659735,0.778984608,,,
,7.860236104,3.025904708,5.100814067,-0.351598981,0.5450684,0.773130887,,,
,8.35756347,0.43332798,5.343347102,-0.331082875,0.541982569,0.757110805,,,
,5.796728605,-0.546315258,4.733949191,-0.299556473,0.558871967,0.7533158,,,
,1.607834165,-0.157735281,3.600982447,-0.30741366,0.571248114,0.750409888,,,
,0.91214881,-0.770227164,1.838048607,-0.307441182,0.568127217,0.759732212,,,
,-1.391428005,-0.99224831,0.981419407,-0.309031804,0.559635372,0.762861162,,,
,-2.325406507,-1.476741421,-0.012318593,-0.324802854,0.541934557,0.764740673,,,
,-1.697845834,-1.355847326,0.665719662,-0.34376371,0.526497859,0.782243731,,,
,-1.079624373,-2.859002102,1.536672807,-0.34217737,0.5249684,0.777540673,,,
,0.09625691,-2.046146878,1.660947352,-0.328016004,0.526446075,0.783439246,,,
,0.242533035,-2.556136611,1.659801437,-0.315367176,0.548048114,0.772310703,,,
,-1.010926734,-2.299279632,-0.052368342,-0.301159429,0.560377778,0.764237717,,,
,-3.487594099,-1.035735806,-2.288106955,-0.291700204,0.5649842,0.762476453,,,
,-5.147682015,0.478419759,-4.613226983,-0.309057594,0.548812946,0.769059021,,,
,-5.682137046,0.10954953,-3.491031846,-0.349290622,0.527264526,0.787812436,,,
,-3.765936996,-1.106725277,-1.418070543,-0.356408563,0.509523853,0.793381244,,,
,-0.603496446,-1.105292883,-0.914268754,-0.332813558,0.500163405,0.802152803,,,
,1.368051327,1.12717987,0.724619724,-0.320190928,0.52018736,0.800349541,,,
,4.825737029,2.683562425,0.424217952,-0.309158308,0.532490622,0.801676758,,,
,7.073679643,5.515463623,0.115221813,-0.295040877,0.526201733,0.821552905,,,
,14.62652389,11.08638956,0.004984733,-0.302939959,0.50610948,0.844853109,,,
,21.17772332,17.04257232,0.706628849,-0.302966361,0.509153415,0.8557421,,,
,34.06004909,24.92733102,2.022254538,-0.298388073,0.496603058,0.906916004,,,
,62.37676924,43.02277058,4.544529344,-0.236459429,0.409721713,0.986952294,,,
,82.12519204,71.36475817,4.275926729,-0.251328746,0.582470031,1.007062283,,,
,125.4591933,107.2088832,-0.724906202,0.218884913,0.21637737,1.166635168,,,
,177.5898156,138.7009928,9.598188984,-0.35178787,0.497809888,1.44137472,,,
,216.8216109,155.2508787,20.23600989,-0.642966463,0.74006422,0.847621916,,,
,215.3375356,164.7616343,32.96942393,-1.085036697,1.463239144,0.880880734,,,
,243.011569,95.75242024,67.46560849,-1.71202895,1.41334791,0.905182671,,,
,238.5235333,34.90413051,100.7340018,-1.19202946,2.057641284,0.437526606,,,
,236.9358673,64.31073098,103.9483523,-0.241332008,2.514437309,-0.35279684,,,
,72.39178502,142.3758295,35.83392642,-0.278913965,2.310766871,0.0907316,,,
,17.78512562,170.9530736,-15.64415423,-0.889476962,1.178318552,0.400147095,,,
,47.92299213,118.3444326,-68.77699429,-1.222191947,0.551323547,0.634258919,,,
,72.76300438,43.73564467,-116.7847269,-1.063182161,0.664759939,0.698482263,,,
,52.62777776,4.293573829,-152.2943019,-0.648289806,0.847793068,0.515262793,,,
,18.16356425,-3.592559967,-175.324054,-0.312270133,0.799774006,0.302296636,,,
,-7.301831437,2.289883124,-182.0301239,-0.143595413,0.589921203,0.182220183,,,
,-14.39860128,4.373214963,-171.1800221,-0.064854027,0.357006422,0.11234261,,,
,-5.746365615,-0.625096954,-145.3037011,0.02018318,0.186468502,0.064208461,,,
,6.619667886,-3.639313323,-114.0611147,0.1273316,0.089908461,0.017269623,,,
,14.31426189,-3.69420268,-83.2661802,0.204559939,0.037360143,-0.018018552,,,
,18.8104336,0.146104238,-58.70622972,0.269188889,-0.015148522,-0.053796636,,,
,15.65194646,7.127079309,-42.2473295,0.300653619,-0.070764526,-0.05773211,,,
,10.70256513,13.62241535,-31.93088063,0.283196636,-0.097093272,-0.01696524,,,
,5.119836266,15.09634928,-24.38416703,0.234173802,-0.106470336,0.053315189,,,
,-2.73902474,10.30040606,-17.32469674,0.161481651,-0.081940469,0.150630377,,,
,-13.29949634,-3.739982008,-8.158976298,0.073025586,-0.020402956,0.264701019,,,
,-28.33952387,-26.71037568,3.142444323,-0.04060948,0.064354027,0.377836493,,,
,-47.64407627,-52.37871301,15.69629339,-0.111619062,0.110603874,0.441731295,,,
,-67.75781696,-75.75023443,28.35699908,-0.132066871,0.160011111,0.446958104,,,
,-92.8016876,-93.51524924,37.09288659,-0.200487258,0.268209276,0.445620489,,,
,-118.8642199,-104.1566225,43.91131353,-0.235782977,0.342478899,0.41547788,,,
,-137.3666887,-106.1803094,50.37989245,-0.235613354,0.364292253,0.358772579,,,
,-146.300705,-98.97473488,54.9989636,-0.251234047,0.44310581,0.335186137,,,
,-150.3994159,-86.68398804,58.1389442,-0.355224363,0.580498981,0.392238022,,,
,-146.1064723,-79.74277624,57.18370897,-0.478179511,0.639277064,0.448013761,,,
,-117.5283115,-71.84392278,52.28749813,-0.53344526,0.559124363,0.47399103,,,
,-70.72327463,-65.01535448,47.2974941,-0.720814271,0.679962997,0.487827013,,,
,-34.34251728,-41.36480261,25.5126647,-0.647940367,0.799039042,0.347418145,,,
,215.7609514,101.2772231,-9.23917363,-6.570064118,5.989547401,1.934517737,,,
,-469.3628432,-491.9430526,-22.31985739,0.560730479,-1.925035168,-3.1103316,,,
,-122.1352359,-181.273705,22.18538419,-3.134074822,2.093789501,2.188244954,,,
,-110.3119654,-204.772595,-21.36106981,1.278623445,-0.385300714,1.951422834,,,
,-145.4206991,-101.5947563,-14.37516731,1.713614883,0.476923955,1.240497961,,,
,-84.15839008,-58.1702277,-24.98153283,-0.688190316,0.851125586,1.283550968,,,
,-50.85441609,-13.70159812,-19.74641745,-0.869406422,0.07190897,1.063844444,,,
,-1.986215493,-1.99005431,6.641669465,-0.641366055,-0.148835474,1.123508053,,,
,21.31202463,-8.837358328,23.12979053,-0.583858206,0.194971152,0.931649745,,,
,30.78221484,-14.78700937,28.20785817,-0.321011723,0.520142304,0.812805301,,,
,18.92147282,-10.12009624,19.80617695,-0.155989399,0.726723649,0.719278491,,,
,1.603880756,-6.093864517,6.181641652,-0.187460449,0.740729052,0.712250255,,,
,-6.664129411,-5.769799589,-2.523134242,-0.288620285,0.564874414,0.788834862,,,
,-8.169060356,-2.997142226,-5.402705529,-0.351720999,0.494047808,0.802571865,,,
,-10.35535271,0.696602087,-6.229655515,-0.282411927,0.529285831,0.811943119,,,
,-11.76941255,4.241549262,-7.096597955,-0.321883282,0.484586239,0.832965851,,,
,-7.877539429,3.509194608,-5.864108442,-0.419608869,0.413902141,0.836610092,,,
,-3.540821878,0.517438185,-1.561424583,-0.402300917,0.406120489,0.84086422,,,
,0.351280424,0.756819952,0.088006317,-0.380209276,0.42768318,0.832629562,,,
,1.082431867,1.806994294,1.188772833,-0.367483486,0.457047706,0.815913252,,,
,1.998820564,2.669639551,1.259418529,-0.335939144,0.487829969,0.80981315,,,
,0.245168641,2.686828284,-0.049790032,-0.335926198,0.490930173,0.805932314,,,
,-0.476070632,2.771110376,-0.728401245,-0.349343017,0.465506218,0.808520387,,,
,-0.051738089,1.682662453,0.34875941,-0.362770133,0.45239419,0.818905912,,,
,1.576321486,2.437247869,0.222307625,-0.364337411,0.444706116,0.813485423,,,
,1.576722556,1.884801963,0.475669562,-0.359592355,0.45550581,0.809511825,,,
,1.887609456,2.299566111,0.741063612,-0.359576962,0.466313354,0.807200612,,,
,1.584171008,0.990185662,1.189173904,-0.356420897,0.463230683,0.804013354,,,
,1.558330611,-0.514745283,0.303151969,-0.343807645,0.477077982,0.803752905,,,
,-0.07276564,-1.071087302,0.22563078,-0.348529969,0.48094842,0.803868196,,,
,-0.888027287,-0.668699043,-0.039877863,-0.353266871,0.47247156,0.805514169,,,
,-1.19370027,-1.478288407,0.103705361,-0.353277778,0.469374414,0.808617635,,,
,0.500994296,-1.561997541,0.946984644,-0.340706014,0.45388736,0.814519266,,,
,3.515096073,-2.4571868,1.908751599,-0.370636799,0.446267176,0.81363211,,,
,4.845618665,-3.66079924,2.688661749,-0.365919572,0.446241488,0.816633741,,,
,6.996846003,-3.841911199,3.694661046,-0.356456371,0.467802446,0.818792151,,,
,5.159886016,-2.984651746,3.213548386,-0.346976147,0.480142915,0.811604383,,,
,4.737386937,-4.57254698,2.836141086,-0.353259633,0.480956269,0.805530683,,,
,3.548213034,-5.457709478,2.092842938,-0.340642712,0.489416004,0.802150255,,,
,2.889999119,-5.703451076,2.287419406,-0.345362385,0.481734251,0.797579001,,,
,3.765249446,-6.401370966,2.91033912,-0.34698685,0.472423649,0.813144139,,,
,6.017661131,-4.924744136,3.208506357,-0.342307747,0.4615579,0.827007849,,,
,6.494247425,-2.620766251,3.644183464,-0.343864832,0.458506728,0.81926422,,,
,8.620035436,-0.928764586,2.605468278,-0.347035066,0.439998063,0.820854944,,,
,10.36881722,-0.849524523,3.711276822,-0.351753007,0.453889908,0.822544241,,,
,12.32987986,0.823454943,2.205429145,-0.296637615,0.469114475,0.8322,,,
,13.69128488,4.68536237,0.50609362,-0.284092661,0.495190724,0.861503058,,,
,18.32112764,12.9335482,0.992706676,-0.293608053,0.482799898,0.881905912,,,
,27.29674068,20.85297084,-0.32160121,-0.293802446,0.38545209,0.923694903,,,
,42.42133679,33.59039558,0.033231552,-0.293130275,0.356780326,0.957825382,,,
,76.34141229,53.30220639,2.548860047,-0.316293782,0.28319735,1.056151274,,,
,115.2485124,93.25856414,-10.17962655,0.195298981,0.148710907,1.129729256,,,
,163.8568194,143.2425428,-17.68405587,-0.048125484,0.340394088,1.218827013,,,
,216.44873,174.1841545,-36.85029626,-0.025726809,0.071598675,1.297853823,,,
,231.2501779,218.9936939,-36.58874102,-0.256379511,0.850117737,1.21524475,,,
,245.9491809,224.3647722,-41.38875225,-1.009188685,0.740784811,1.149020897,,,
,252.7417102,162.1612654,-23.59554792,-1.357023242,2.180474618,0.921910092,,,
,197.2077759,72.95442958,26.78852712,-1.879537207,2.389871662,0.833181346,,,
,164.1044517,81.3764508,25.97544271,-1.198983384,2.032016922,0.083178797,,,
,35.93253246,69.4285619,11.3885675,-1.037862385,1.828921713,0.415067788,,,
,-2.611770813,69.46620522,-3.22271571,-1.085720489,1.163344343,0.42884791,,,
,-2.429684826,53.14424192,-28.63070102,-1.041883588,0.672088685,0.370920082,,,
,1.875405455,27.53285659,-52.28807109,-0.859209174,0.572878695,0.352569419,,,
,-7.490850214,15.38626593,-70.16744827,-0.576990826,0.557792457,0.243499796,,,
,-20.80106086,18.84641535,-77.95543439,-0.348348318,0.461171764,0.116836391,,,
,-26.08063776,25.417611,-76.55787574,-0.215938838,0.289121814,0.023312029,,,
,-21.05276122,30.23985299,-64.59233974,-0.093011417,0.129381651,-0.054425688,,,
,-9.624659634,34.38428591,-47.49865958,-0.017422528,0.018195719,-0.084350051,,,
,-0.735334034,35.96742559,-29.52898425,0.045532212,-0.026745973,-0.08043211,,,
,1.372233919,36.24066916,-15.25992873,0.070617737,-0.074751682,-0.052337207,,,
,0.893355794,34.24780736,-5.417201361,0.108333028,-0.150488175,-0.044017533,,,
,0.384454681,32.34203514,-2.672676227,0.150761366,-0.255531295,-0.040526504,,,
,2.889884527,29.5799202,-4.359635863,0.141163201,-0.301937717,2.20E-05,,,
,-0.221849258,23.36418756,-6.352612258,0.139433333,-0.286746177,0.063053925,,,
,-7.624062901,15.76722556,-9.030960767,0.139272069,-0.249997248,0.135420082,,,
,-18.27563479,4.653104846,-10.64481099,0.091829969,-0.186953415,0.226793986,,,
,-30.1188443,-12.31968122,-9.230178192,0.008134353,-0.089170846,0.339272579,,,
,-46.39542935,-35.16253448,-3.805814858,-0.062879511,0.049520897,0.434441182,,,
,-66.25844371,-59.12970282,6.084582601,-0.103892151,0.198244444,0.504848624,,,
,-88.95490626,-80.9324658,16.26942307,-0.206236188,0.380366565,0.57034159,,,
,-112.3742697,-103.7153304,25.91671454,-0.316489806,0.483934047,0.602596024,,,
,-126.3136453,-126.0662421,29.06162258,-0.418696636,0.539957696,0.555287564,,,
,-127.0365461,-138.5626808,24.7430105,-0.427781244,0.562079715,0.424948828,,,
,-114.9642108,-133.2995478,18.01923618,-0.452515291,0.670678389,0.284253721,,,
,-96.36691748,-113.4863807,13.35066147,-0.479014577,0.828315596,0.230754332,,,
,-71.59308185,-87.6659804,15.80842123,-0.597041794,0.930511315,0.224317431,,,
,-35.97424379,-48.99161571,18.79559399,-0.551014679,0.77833476,0.044187462,,,
,26.71725117,16.786231,16.66831629,-1.098494292,0.92111947,-0.154481346,,,
,-433.6725573,-394.3316135,67.30426357,-8.533666157,7.356708563,2.787098267,,,
,34.82597907,-77.98608764,68.69494673,1.311487462,-1.357510703,-1.218177778,,,
,-236.7487393,-312.7242607,12.3891237,0.13306524,0.13316473,2.018812742,,,
,-75.97506307,-144.6971107,32.37457914,1.772186952,0.673627829,1.805272987,,,
,-126.0786753,-71.60179081,-15.6065682,0.188131804,0.598117431,1.007956371,,,
,-83.63871736,-40.91600477,-12.40791672,-0.781824873,-0.20936524,0.932879511,,,
,-21.6409024,-27.68165373,6.949004027,-0.601832416,-0.072511519,1.110158512,,,
,5.421956911,-15.03452714,15.56004403,-0.457794699,0.283989195,0.959882365,,,
,18.72557855,-14.5720356,19.04202314,-0.315638124,0.475192253,0.871510805,,,
,11.92061611,-7.830270411,14.0168968,-0.173421713,0.656465749,0.757467074,,,
,1.227390189,-5.959906985,7.051162402,-0.267899796,0.639068502,0.741708767,,,
,-5.072624543,-9.048951642,2.050959723,-0.266508563,0.58333262,0.792870846,,,
,-7.840927426,-4.897070275,-0.785926208,-0.309170336,0.523228746,0.803213558,,,
,-7.233935938,-2.436846798,-1.738755021,-0.280874618,0.511508053,0.820423853,,,
,-5.163323762,1.035105553,-1.324449239,-0.3503158,0.435250153,0.847509174,,,
,0.500879705,0.826262436,2.403672542,-0.383426911,0.416810907,0.854446585,,,
,7.328817749,-0.529355707,3.875601118,-0.355023853,0.446074516,0.84452844,,,
,11.03379204,-0.521105115,6.239624981,-0.351874414,0.435278491,0.841326198,,,
,14.0819848,-0.620685179,6.643216451,-0.330487462,0.486237003,0.811400306,,,
,11.93390873,-0.224771343,6.051293753,-0.309175127,0.507813863,0.80007421,,,
,10.00349933,2.76658401,5.379729922,-0.309154638,0.512465545,0.793864322,,,
,9.130368944,2.445154687,4.747356403,-0.327325994,0.484702956,0.806661366,,,
,9.585984983,2.082758881,4.64680231,-0.321845566,0.475395311,0.815845973,,,
,8.867725091,2.28042932,4.381522851,-0.309211621,0.489272273,0.807811927,,,
,7.953800112,3.652376761,4.123634547,-0.321001427,0.493192966,0.800315189,,,
,6.51046213,3.984004733,3.130584097,-0.317022324,0.512500306,0.790934455,,,
,3.638740365,3.854401679,1.907548387,-0.309130887,0.520973904,0.787661876,,,
,2.20508537,2.833276297,1.623705096,-0.320154434,0.521780326,0.787137411,,,
,-0.072192682,1.009035973,-0.015240677,-0.323295923,0.52488369,0.78488318,,,
,-1.410679387,0.832335789,-0.910487232,-0.313860958,0.515588277,0.787759225,,,
,-2.585013684,0.776014038,-1.235125119,-0.323329969,0.514049541,0.794190622,,,
,-4.583261291,0.302292533,-1.985986309,-0.331211111,0.507901835,0.794358206,,,
,-5.095084489,-0.157162323,-2.047350089,-0.326461264,0.504789602,0.804966361,,,
,-5.397548909,-0.606590418,-1.797998857,-0.328034862,0.501714781,0.80344159,,,
,-5.399955332,-0.512510748,-2.054970428,-0.334359837,0.487831295,0.808222528,,,
,-3.872048779,-1.521947791,-1.57844143,-0.331200306,0.498620795,0.80817156,,,
,-4.487749226,-1.476454942,-1.843262523,-0.33275841,0.501731498,0.802771967,,,
,-5.247835037,-1.063810738,-1.747406684,-0.324867074,0.512516106,0.800281244,,,
,-6.337199693,-1.146316661,-2.894410894,-0.323296024,0.512505505,0.8018,,,
,-7.790392549,-1.190835481,-4.509177848,-0.324880632,0.506333537,0.803378695,,,
,-8.277005604,-1.108902517,-3.539675963,-0.328070744,0.483944444,0.811180734,,,
,-6.236072642,-0.656265859,-3.458086773,-0.331278899,0.464611111,0.826762385,,,
,-3.770119588,-1.130273842,-2.040130821,-0.339169215,0.44766473,0.826909072,,,
,-1.305656224,0.213484074,-1.121564884,-0.342324363,0.446896636,0.828534149,,,
,2.169332804,-0.115909362,0.108231728,-0.348572681,0.46470897,0.814719776,,,
,3.996094142,-0.087719838,-0.228151794,-0.309296534,0.489099388,0.860511111,,,
,4.286010786,1.409189697,-1.189345791,-0.290331804,0.509164016,0.843017023,,,
,10.31409975,5.970850479,-1.124888039,-0.286489602,0.488985423,0.872427931,,,
,14.87977124,13.67128865,-3.522831003,-0.262044139,0.507446993,0.866465545,,,
,25.3877599,22.29579316,-4.913399572,-0.281223751,0.397709378,0.935869113,,,
,42.94502021,36.25986325,-5.549382725,-0.227908869,0.357148114,1.012305912,,,
,78.93559329,60.11221085,-7.393504684,-0.274621916,0.282975127,1.081629562,,,
,112.5565275,109.1014201,-20.61989161,0.200522018,0.354333435,1.008751376,,,
,139.1409671,149.6704417,-19.44658864,-0.280910398,0.346183588,1.097442915,,,
,186.0193426,148.0249069,-34.49882017,-0.2832158,0.330864424,1.071036799,,,
,152.2634195,177.5977224,-45.11349358,-0.534482059,0.902782059,0.973724261,,,
,199.9048601,169.7045985,-32.15765732,-1.177794699,1.221858614,0.738719572,,,
,149.3810407,139.9348574,-15.6852926,-1.548672375,1.765766157,0.596662895,,,
,155.3033616,100.3139664,11.11595418,-1.446787258,2.225392253,0.338725382,,,
,46.11210172,70.93120101,11.54928216,-1.119772273,1.864543629,0.449493068,,,
,17.1364801,81.91783862,-9.772998407,-0.883679001,0.919085117,0.209842406,,,
,42.82412612,86.08238235,-42.06449867,-1.003859735,0.459609684,0.240443731,,,
,55.87352638,58.31106073,-65.79171229,-1.053077982,0.627145158,0.440886646,,,
,41.02572619,32.64954159,-80.03280747,-0.854550663,0.729878186,0.448998675,,,
,21.91231251,22.4798845,-84.50984239,-0.603840265,0.641689908,0.318739653,,,
,13.04029023,21.47216633,-79.77847151,-0.400445566,0.482676656,0.189420693,,,
,13.97541465,27.41121765,-66.67687479,-0.255463405,0.362166055,0.12291682,,,
,16.99031857,32.52950693,-48.66107636,-0.187821407,0.277095413,0.128204077,,,
,17.79876202,35.93854852,-28.52613623,-0.12648318,0.229788175,0.146923242,,,
,14.83972149,39.69010427,-14.30222978,-0.084066463,0.164789399,0.167593884,,,
,11.10019784,40.82083648,-6.018635159,-0.100010194,0.104470031,0.22069684,,,
,7.539379739,35.98295275,-3.022466961,-0.133345362,0.046420591,0.299074822,,,
,3.971915323,21.22865927,-2.879170216,-0.150906116,0.024616718,0.359444852,,,
,-4.495942523,5.46527252,-2.913261205,-0.106842813,0.045999796,0.381024363,,,
,-17.67311237,-7.41527708,-2.524853116,-0.0627158,0.095978491,0.387889399,,,
,-34.33736066,-18.45141824,1.11944494,-0.020154128,0.123634455,0.383863812,,,
,-50.03651884,-27.94509973,6.948373773,0.004301733,0.127473293,0.36932212,,,
,-58.68709293,-35.69337988,14.01735516,0.020883282,0.098980326,0.344014169,,,
,-60.77334685,-43.55928826,21.23072192,-0.013798063,0.076700815,0.347870438,,,
,-61.66062929,-53.57201221,28.24762144,-0.068908767,0.169338736,0.371073089,,,
,-65.8825261,-63.01664851,33.52811507,-0.114595209,0.303512436,0.417461774,,,
,-75.18380836,-70.92976861,38.43870715,-0.13985841,0.412896432,0.475773293,,,
,-83.68942412,-78.12995734,41.72095318,-0.217230785,0.48835107,0.572517737,,,
,-88.22851037,-90.56062048,41.00120359,-0.280417941,0.495981753,0.643931906,,,
,-86.37510649,-100.3890239,36.32363345,-0.299484608,0.497342712,0.706554638,,,
,-79.75171438,-109.2278146,31.20998513,-0.324013456,0.563506014,0.770983486,,,
,-69.63992603,-112.8750348,29.72843086,-0.290044546,0.615940979,0.748546687,,,
,-52.14099282,-99.8079874,32.79111946,-0.225308767,0.615971764,0.689549439,,,
,-23.3948981,-71.27428814,34.99649131,-0.168478491,0.612901733,0.640831397,,,
,220.6541256,81.50788732,28.14609332,-4.624861468,5.913393986,0.147274516,,,
,-467.8861018,-499.0504222,-7.551870219,-0.232395107,-1.772770438,-1.55674893,,,
,-51.94492666,-121.2755128,30.89119141,-3.103964322,1.630895209,1.379019266,,,
,-127.6309325,-154.9678376,22.18091512,0.214476249,0.432192355,0.800424771,,,
,-121.7671106,-141.8679024,3.614561546,0.733723751,-0.001077166,1.748503466,,,
,-40.9114784,-28.0282359,11.54899568,0.542042915,0.892249032,1.263357187,,,
,-65.27685242,-20.10789652,-23.34304542,-0.26980367,0.532340367,0.810107034,,,
,-25.89402541,2.70453268,-13.26718152,-0.842580122,-0.000517737,1.021893272,,,
,11.95911887,4.005834425,7.509414046,-0.637760958,0.01127737,1.004032314,,,
,25.75548422,5.922722024,18.16407991,-0.599376045,0.183024873,0.840256677,,,
,36.1464176,-5.656353945,23.72727092,-0.526593068,0.348142712,0.769739246,,,
,30.45935312,-11.33178738,17.06577711,-0.0175842,0.741426911,0.800102141,,,
,8.445627083,2.272751686,3.594221545,0.188983792,0.838209174,0.744279205,,,
,-5.886052725,4.847738609,-6.543292612,-0.227018756,0.63273262,0.745588073,,,
,-12.75455618,2.034229356,-9.490415623,-0.288590622,0.534100917,0.76778634,,,
,-16.61823978,4.604288842,-11.0138531,-0.394300612,0.450187971,0.808120693,,,
,-12.8208474,1.165625338,-8.362089837,-0.473049235,0.418845973,0.795862997,,,
,-7.891634191,-3.118494687,-4.574495036,-0.443932824,0.438756575,0.810784506,,,
,-4.501557509,-5.196784498,-2.026723609,-0.384873089,0.466305199,0.821929052,,,
,-3.453617702,-3.884424668,-0.614497235,-0.372241284,0.467852497,0.810761672,,,
,-2.765037024,-4.249513375,0.932832586,-0.347061264,0.467746585,0.818737819,,,
,-2.558944105,-1.817937788,0.493030183,-0.356489908,0.477050765,0.813529766,,,
,-1.134857505,-2.428882685,0.661995436,-0.358860754,0.472423751,0.81512946,,,
,-0.863561989,-2.100807052,1.490034042,-0.340759633,0.478515087,0.821724567,,,
,-0.059014653,-2.674853467,1.136118012,-0.340768196,0.470798777,0.822486952,,,
,-0.273931122,-1.581649993,0.266425375,-0.325799898,0.47076106,0.820590928,,,
,-0.255424585,-0.5416743,0.943604193,-0.334465341,0.468472273,0.820784098,,,
,0.926243572,0.38514223,1.379224004,-0.342331804,0.472360754,0.818639042,,,
,0.353801438,-0.035637975,0.854738439,-0.34546106,0.480104077,0.813284302,,,
,-1.169349564,-1.842746861,1.489174605,-0.354887258,0.480167074,0.80417156,,,
,-2.099030882,-1.660603578,0.705998595,-0.343853619,0.483997554,0.802372885,,,
,-2.616927433,-1.320782309,0.13521804,-0.332825382,0.486279409,0.802125892,,,
,-1.921127487,-1.907491092,-0.631514082,-0.33363894,0.480081448,0.809905505,,,
,-2.510070805,-2.075253134,0.439401333,-0.34862212,0.472393986,0.814895923,,,
,-2.306899971,-2.48216776,0.490108098,-0.348636391,0.467751172,0.818773802,,,
,-1.66667693,-1.47662683,1.791925504,-0.351792049,0.461589602,0.818833639,,,
,-1.279529348,-1.661291127,0.818584802,-0.345492762,0.464650663,0.820250663,,,
,-0.66044845,-2.152373253,1.491867507,-0.33918002,0.471583282,0.817788379,,,
,-0.861384749,-1.036537947,1.343242255,-0.33130367,0.476953721,0.819173904,,,
,-0.476013336,-0.516979819,0.067036062,-0.331307136,0.477719164,0.820730173,,,
,-1.174391593,-0.442438009,0.726682372,-0.340755861,0.470816514,0.817822834,,,
,-0.866598665,0.166386944,0.684111607,-0.343125382,0.46773211,0.819425382,,,
,-0.869291567,-0.039247609,0.631113011,-0.338393782,0.472349337,0.818549235,,,
,-0.154698605,-0.59134974,0.996144423,-0.328140061,0.475422528,0.813657594,,,
,0.151547337,-0.237147231,0.951854785,-0.331294597,0.47542579,0.8152842,,,
,-0.460256997,-0.035580679,0.791140124,-0.337594495,0.473904485,0.814647503,,,
,-0.562587259,-0.036669299,0.738370711,-0.340748318,0.472367992,0.81549368,,,
,-0.672423268,0.102272966,0.275191629,-0.339959429,0.473908461,0.815478695,,,
,-1.69572589,-0.05511854,0.003036676,-0.339160856,0.477003262,0.812357288,,,
,-0.871067736,-0.040393525,0.579890584,-0.339165545,0.473914985,0.813128644,,,
,-1.698017722,-0.565050978,-0.001604282,-0.334441386,0.472358512,0.813017941,,,
,-1.694465383,0.601376502,-0.146791787,-0.332878084,0.475418552,0.81842946,,,
,-2.102354038,-0.258174782,-0.00475555,-0.337605403,0.470807339,0.817750968,,,
,-1.701111694,0.337586733,-0.457564095,-0.337606728,0.469264628,0.81774791,,,
,-1.694408088,0.348587523,-0.097345529,-0.336817839,0.470804995,0.817733028,,,
,-0.573645344,1.005598226,-0.128457138,-0.334450968,0.470804077,0.816124363,,,
,-1.755141614,0.990128366,-0.761976572,-0.331297248,0.472340469,0.815278186,,,
,-1.704091074,0.939249714,-0.761690093,-0.334452294,0.469261366,0.816121407,,,
,-1.094979642,0.834341141,-0.805177589,-0.340757798,0.468502446,0.817818349,,,
,-1.49358638,-0.009854874,-0.148625252,-0.340757085,0.469273802,0.817819776,,,
,-1.689366059,-0.045779328,0.311402562,-0.339166871,0.472372273,0.813125688,,,
,-2.2087523,0.54356506,-0.462548828,-0.342324057,0.469290214,0.814746279,,,
,-2.101380009,0.451490743,-0.102387558,-0.331295107,0.472343425,0.814500815,,,
,-2.732951387,-0.439114854,-0.991789943,-0.33286422,0.474667992,0.812986544,,,
,-2.626266646,0.121868123,-0.935067122,-0.331308869,0.470783078,0.819161978,,,
,-3.331806874,0.638790646,-0.786212686,-0.339191539,0.467714679,0.820890316,,,
,-1.100651924,0.926759234,-1.113027813,-0.339965341,0.469277472,0.816247095,,,
,-2.525311482,-0.232105203,-0.884188469,-0.343903976,0.468517533,0.816335372,,,
,-1.891792048,0.25685698,0.207582609,-0.339188685,0.466177982,0.81933262,,,
,-1.699220933,1.047194962,-0.555138808,-0.33446055,0.469249541,0.819230785,,,
,-2.611255151,0.65013521,-0.313980872,-0.332892151,0.466153721,0.820743629,,,
,-3.588148192,0.637071772,-0.841617705,-0.326580734,0.473854638,0.819060245,,,
,-3.132532153,0.837034043,-0.935926558,-0.330498165,0.478517737,0.812940061,,,
,-5.063743698,-0.568374133,-0.510047029,-0.334425892,0.480855046,0.809924975,,,
,-4.678085806,-0.504317451,-1.687418002,-0.33443792,0.473904179,0.812243527,,,
,-5.49243072,-0.659760901,-1.854607087,-0.340783078,0.463073598,0.825581448,,,
,-4.658834424,-0.580463542,-0.865223566,-0.353395209,0.45539103,0.827408563,,,
,-2.982818281,-0.538121961,-0.944177151,-0.352612232,0.464627013,0.832072681,,,
,-2.622026758,-1.792842237,-0.33151338,-0.35968787,0.460043323,0.826006524,,,
,-2.093129417,-2.218779062,0.853076861,-0.339223344,0.452261366,0.827856677,,,
,-1.695496707,-2.285299462,0.395111696,-0.337648114,0.452256779,0.827820693,,,
,-2.00810248,-2.598249009,0.131608406,-0.331338838,0.462265851,0.827696534,,,
,-1.710450906,-3.721188992,0.075114767,-0.329746789,0.455351784,0.819096126,,,
,-0.694825918,-1.452677194,-0.561555935,-0.328167788,0.462286239,0.81985107,,,
