Packet number,Gyroscope X (deg/s),Gyroscope Y (deg/s),Gyroscope Z (deg/s),Accelerometer X (g),Accelerometer Y (g),Accelerometer Z (g),Magnetometer X (G),Magnetometer Y (G),Magnetometer Z (G)
,-0.46088725,-0.156646661,0.165470211,-0.353674006,0.446776147,0.825088787,,,
,-0.9801589,0.23227709,-0.506895761,-0.356032008,0.447560347,0.823589399,,,
,-1.086614458,-0.128915504,-0.665605071,-0.353669827,0.446782059,0.823534047,,,
,-0.872156356,1.050059751,-0.396429498,-0.355245668,0.446015291,0.823568502,,,
,-0.149026323,0.358041326,0.379183469,-0.353676555,0.443690826,0.825082773,,,
,-0.060045977,0.741407387,-0.387835132,-0.352102243,0.447537003,0.826609072,,,
,-0.972653153,-0.008594367,-0.046237694,-0.352095311,0.446006116,0.823496636,,,
,-1.267898305,0.563847766,0.314152759,-0.35367054,0.446010703,0.823532518,,,
,-0.053571554,0.348415635,0.072078091,-0.35367054,0.446010703,0.823532518,,,
,-0.970418618,0.146046942,0.006531719,-0.356038736,0.444469011,0.825138124,,,
,-0.657010704,0.814745985,0.27272791,-0.352102039,0.442914883,0.825045362,,,
,0.047326314,-0.05809792,0.121467053,-0.352101427,0.443686239,0.825046891,,,
,-0.610371939,0.20173844,0.217380187,-0.352103568,0.445994292,0.826606116,,,
,0.115279108,0.423931473,0.897595682,-0.353677982,0.444459225,0.825861672,,,
,-0.885391681,-0.234568921,-0.766502938,-0.355249847,0.446009378,0.825123242,,,
,-0.86367658,0.0529413,0.315642449,-0.35209949,0.446000204,0.825051376,,,
,0.255367289,0.353744143,0.282067123,-0.35367054,0.446010703,0.823532518,,,
,-1.686443974,0.546257962,-0.308938843,-0.353668298,0.44370265,0.821973293,,,
,-0.565452048,0.394538738,-0.140317364,-0.353674618,0.446004791,0.825087258,,,
,-0.349275072,0.768049924,0.431322628,-0.3568263,0.444471356,0.825156167,,,
,-0.556800385,0.15544345,0.372021496,-0.352890418,0.444456881,0.825843731,,,
,-0.653229182,0.670131437,0.529011932,-0.353671764,0.444468094,0.823529562,,,
,-0.470570237,-0.121409757,-0.348644818,-0.35367054,0.446010703,0.823532518,,,
,-1.071087302,0.047555497,0.107200403,-0.35367054,0.446010703,0.823532518,,,
,-0.471143195,-0.274274897,-0.34984803,-0.353674618,0.446004791,0.825087258,,,
,-0.877828638,0.231646837,-0.505807142,-0.35525525,0.444460856,0.826674924,,,
,-0.764325699,-0.203457313,0.263847065,-0.353673293,0.447547503,0.825090316,,,
,0.045893919,0.34291524,-0.081130824,-0.352109072,0.444445668,0.828157798,,,
,-0.554737737,0.967496533,0.275478108,-0.353672477,0.443696738,0.823528033,,,
,-0.143182153,0.165412915,0.73796964,-0.355253925,0.446003466,0.826677982,,,
,-0.458881898,0.199904975,0.168105817,-0.353675943,0.444462181,0.825084302,,,
,-0.040680003,0.773378432,0.641254364,-0.355245668,0.446015291,0.823568502,,,
,-0.455043081,0.661193296,0.274389488,-0.348944241,0.446768298,0.8234263,,,
,-0.316845661,0.081875669,-0.345035184,-0.353671764,0.444468094,0.823529562,,,
,-0.863905763,0.608653066,0.165699394,-0.352095311,0.446006116,0.823496636,,,
,-0.054946653,0.547518469,-0.080729753,-0.356040061,0.4429263,0.825135168,,,
,-0.874734666,0.33844617,-0.350650171,-0.355246993,0.444472681,0.823565443,,,
,-1.061576203,0.26350329,0.520016495,-0.352106218,0.44290897,0.826600102,,,
,-0.443068263,0.629164955,0.89123585,-0.350526198,0.443681651,0.825010907,,,
,-1.476856013,0.55456585,0.002406423,-0.35052844,0.445989704,0.826570133,,,
,-0.508557339,0.606303939,0.1194617,-0.356824975,0.446013965,0.825159123,,,
,0.252273317,0.6516249,0.027215495,-0.355246993,0.444472681,0.823565443,,,
,0.140145477,0.382793103,-0.439229446,-0.352094699,0.446777472,0.823498165,,,
,-1.070743528,-0.254966219,0.207697201,-0.35367054,0.446010703,0.823532518,,,
,-0.04927437,0.052368342,0.378495919,-0.355245668,0.446015291,0.823568502,,,
,-0.870838553,0.142437308,-0.095225586,-0.353673089,0.442925382,0.823526606,,,
,0.306417829,0.151146266,0.332372817,-0.352100714,0.444457594,0.825048318,,,
,-0.30653242,0.199503904,0.170225761,-0.353671764,0.444468094,0.823529562,,,
,-0.870723961,-0.05987409,-0.045263666,-0.353677982,0.444459225,0.825861672,,,
,0.04629499,0.142208125,0.020168114,-0.349740163,0.446758818,0.826553721,,,
,-0.253247345,0.90997157,0.074369922,-0.363132722,0.447563201,0.828415291,,,
,-0.375000877,0.222479512,-0.704394313,-0.339494699,0.4644579,0.829464016,,,
,-0.717285864,0.194691059,-0.091329473,-0.374151784,0.441442406,0.82399052,,,
,-0.978382731,-0.674772395,-0.204603229,-0.363132926,0.452185321,0.829979001,,,
,-2.388832935,-0.394309555,0.447537334,-0.368630479,0.458386952,0.826229766,,,
,-2.910511008,-1.678250678,0.069843555,-0.35997737,0.458346891,0.829919062,,,
,-3.732418965,-2.294524082,-0.201967623,-0.36470632,0.473763812,0.836275637,,,
,-5.792660605,-3.952205575,-1.323360619,-0.366327523,0.468309786,0.851848522,,,
,-6.044360964,-4.955053604,-0.822022549,-0.34975107,0.458299286,0.834349847,,,
,-7.122094577,-3.552223738,-1.651092478,-0.325308257,0.446711315,0.819777982,,,
,-7.430861532,-2.449910236,-2.31383276,-0.35055739,0.445948318,0.837453313,,,
,-7.02824409,-2.560662978,-2.565819598,-0.358454027,0.445941692,0.845406626,,,
,-7.543333148,-3.527815736,-2.632912956,-0.358425484,0.425951886,0.828265647,,,
,-6.615485294,-3.863798187,-1.851742298,-0.355272273,0.424405912,0.826636086,,,
,-5.791285506,-3.850276383,-1.275461348,-0.343465443,0.425902345,0.829479103,,,
,-6.090827841,-4.244872417,-0.921258839,-0.356868603,0.433625178,0.837573089,,,
,-5.188820384,-4.725125641,-1.480179168,-0.339542508,0.422787768,0.834047503,,,
,-4.560113796,-4.141453535,-0.693909186,-0.360031193,0.428994495,0.840745464,,,
,-3.752816262,-4.153829423,-0.942229094,-0.334812029,0.421240163,0.831604689,,,
,-3.551879964,-3.048192766,-1.393834428,-0.334822426,0.421225382,0.835491539,,,
,-2.326838902,-2.690094144,-1.220342808,-0.338748828,0.410467686,0.827786748,,,
,-1.696126961,-2.607416334,-0.130233307,-0.344259531,0.418191233,0.829482161,,,
,-0.931171009,-2.25206791,-0.116081249,-0.35686106,0.418227931,0.829769521,,,
,-0.783978151,-4.83753996,0.277999122,-0.361595107,0.422851988,0.834550459,,,
,-0.975346055,-4.766779672,0.94268746,-0.344253925,0.415117737,0.826366667,,,
,-0.456188996,-3.892216894,1.315110027,-0.331640979,0.406622936,0.819066565,,,
,-0.063712907,-2.602947263,0.250153373,-0.322185117,0.40968369,0.818079613,,,
,0.360505045,-1.465511448,0.831992014,-0.334805199,0.422020387,0.829274108,,,
,0.364802228,-1.004509606,0.888199174,-0.348995107,0.425894801,0.835823751,,,
,0.173778099,-2.752775727,1.953385011,-0.363190112,0.433613965,0.845490418,,,
,0.787759673,-3.858698863,2.51706089,-0.348989195,0.418199083,0.831144648,,,
,0.501968324,-4.229058782,3.693858905,-0.346617533,0.43361315,0.832675433,,,
,0.698664735,-5.19730016,3.738492317,-0.32137421,0.427434047,0.814986646,,,
,0.807240238,-2.910854782,3.603503461,-0.30796371,0.442833741,0.811601733,,,
,-0.198014214,-2.788012631,4.156923395,-0.314270133,0.445925586,0.814860856,,,
,-0.011860226,-2.40722488,3.288090195,-0.309492049,0.444446075,0.794538532,,,
,-1.732968147,-1.428097304,3.527128187,-0.280322732,0.443631295,0.782989399,,,
,-3.84638027,1.897922696,3.782896547,-0.288999083,0.467520693,0.795671152,,,
,-5.987007889,1.893510921,3.290725801,-0.326821814,0.429084506,0.791016922,,,
,-6.899672361,0.273243572,3.423193643,-0.382079715,0.429064628,0.839693578,,,
,-7.420261813,-5.26639887,3.732762739,-0.418455148,0.393522834,0.883983588,,,
,-2.652737296,-6.473735536,3.321207155,-0.366556983,0.380926402,0.909982059,,,
,0.817037816,-5.458683506,3.734195134,-0.330356983,0.385401529,0.921602752,,,
,3.274797574,-4.213932696,4.655396677,-0.341288889,0.421007034,0.897824567,,,
,4.430453447,-4.932364475,4.563666134,-0.323825994,0.439640367,0.852377982,,,
,2.740972796,-3.326077297,3.626994731,-0.309616616,0.448890622,0.842744241,,,
,2.091009473,-2.074852064,1.311385801,-0.261562385,0.464174516,0.842455963,,,
,2.348496706,1.815359478,0.314725717,-0.268668502,0.431042304,0.838666463,,,
,2.738279894,3.756425896,-1.154624549,-0.287583384,0.435701733,0.845325382,,,
,2.951993152,6.649862762,-1.488601648,-0.309654128,0.424184098,0.848915392,,,
,3.495271733,7.581262954,-2.605754756,-0.309656473,0.416476555,0.847345668,,,
,2.584039656,8.609321125,-2.454952265,-0.30958104,0.427370031,0.822490826,,,
,3.391222598,11.67470263,-3.705891019,-0.3174842,0.419650051,0.830429154,,,
,1.956708166,11.51198261,-4.288703688,-0.352146177,0.439770336,0.840586748,,,
,1.963010702,9.197118527,-3.331233917,-0.334821509,0.432012334,0.838621916,,,
,3.383831442,8.582907771,-3.264484334,-0.33324261,0.4412579,0.840158716,,,
,2.766412122,7.107999815,-3.334671663,-0.356089297,0.433611111,0.840664628,,,
,3.487193029,6.26271518,-2.559918133,-0.345841488,0.44438002,0.840451988,,,
,3.578923572,4.728792571,-2.726247781,-0.34033792,0.428171662,0.838740163,,,
,3.060282175,4.616320955,-3.094258573,-0.320618552,0.445875943,0.832883996,,,
,2.939101602,5.544569879,-4.374876541,-0.315105301,0.443548726,0.831976351,,,
,3.550332978,4.887272697,-4.216167231,-0.340316718,0.433594801,0.832531702,,,
,6.006545749,6.015025525,-3.709328766,-0.352154128,0.447462997,0.846043221,,,
,8.247899348,7.728112037,-4.027033863,-0.349028236,0.425847401,0.848261672,,,
,10.23314081,8.536727373,-3.993745015,-0.33954842,0.430483384,0.838726707,,,
,11.83129199,10.68594936,-3.441986658,-0.33326738,0.424273598,0.84401264,,,
,13.9503191,12.27499051,-4.47955593,-0.309595005,0.459707238,0.838101019,,,
,13.73660584,17.41281765,-6.345507581,-0.30327788,0.464334659,0.833302039,,,
,15.26210597,24.32578263,-8.277177492,-0.314322732,0.447391335,0.835075331,,,
,22.26101462,31.48271304,-11.37114959,-0.27663262,0.41013843,0.865236188,,,
,27.95380868,42.98300731,-14.43996883,-0.309693782,0.43106106,0.866030887,,,
,50.30936134,45.38226808,-16.33519863,-0.25636422,0.358933537,0.926859939,,,
,61.13614373,63.35933456,-18.76431049,-0.383978287,0.357730071,0.938317635,,,
,75.67420293,79.07459286,-17.67643553,-0.354073904,0.326792253,0.936797961,,,
,95.49521949,94.9290226,-16.51052371,-0.335110907,0.342232008,0.918517329,,,
,122.8350466,130.1792196,-36.28639119,-0.245776147,0.273117227,0.767876147,,,
,128.0574423,148.5397095,-29.13662276,-0.113091437,0.372284608,0.95393527,,,
,146.2113809,174.8624219,-37.86723905,-0.280595923,0.49485841,0.902026707,,,
,170.1269257,195.9105995,-52.55432458,-0.153694597,0.491548522,0.861038022,,,
,187.0639592,231.227145,-74.62265349,-0.112666055,0.539299694,0.847758919,,,
,213.6883912,272.5837543,-96.49990098,-0.147956881,0.670587156,0.834051274,,,
,235.737125,329.717043,-132.4255579,-0.040284811,0.654125178,0.616245056,,,
,250.05471,409.5529822,-171.9468116,-0.38710948,0.793402243,0.775225994,,,
,240.6911473,366.7367629,-153.1299035,-1.352799796,1.269512844,1.283225586,,,
,266.878126,395.1941441,-148.9514369,-1.34469317,1.255951988,1.192067176,,,
,292.1122759,362.529763,-109.1752171,-1.434030989,0.879354332,0.904979103,,,
,306.7559312,314.895427,-116.0086555,-1.418498573,1.951399286,1.331143017,,,
,250.9284134,230.0627802,-122.7961428,-1.816000714,2.061160041,1.583723344,,,
,207.6153251,147.9456095,-105.7078484,-1.359122528,1.925885117,1.502305607,,,
,109.3671007,54.10824341,-84.95703595,0.75966371,0.473237615,2.111883282,,,
,61.56059086,-35.08856563,-0.545112046,-1.711447808,3.009413863,2.847126911,,,
,-64.72795885,-118.2041152,55.51433914,0.149991845,1.353881346,1.844560245,,,
,-100.165685,-125.2044563,71.89056154,0.846252192,0.47552895,1.24086371,,,
,-104.9502263,-113.5497499,73.20819258,0.495974822,0.201802854,1.085075535,,,
,-90.34702181,-121.8994065,76.12477694,0.360646483,0.096077982,1.002448114,,,
,-86.43681404,-142.6169874,76.15015897,0.110242304,0.25096055,1.038775841,,,
,-93.85856555,-173.6845926,79.49193531,-0.118056269,0.482895107,1.079414373,,,
,-113.3480687,-205.2742195,84.60724521,-0.253420999,0.656005097,1.099940571,,,
,-138.7918639,-238.6118834,95.02252931,-0.417120285,0.736775841,1.084397655,,,
,-158.3810044,-267.4199149,107.8044729,-0.490862895,0.731243935,0.974910499,,,
,-173.2144234,-285.1854453,119.3416083,-0.495230071,0.690167482,0.827237819,,,
,-179.753648,-292.5558598,125.5180361,-0.490273394,0.650422834,0.727549337,,,
,-181.6513415,-291.9823864,127.2972992,-0.505962895,0.645935372,0.703023853,,,
,-180.123435,-290.4646785,127.0749343,-0.526423344,0.653723242,0.69961896,,,
,-171.5876816,-281.964162,124.6357957,-0.515396636,0.673722222,0.70562528,,,
,-158.3843849,-266.2898129,122.3785711,-0.573757187,0.793192457,0.774817023,,,
,-149.5453077,-250.8546164,120.1625996,-0.652732212,0.904822528,0.893434862,,,
,-135.5122535,-240.4612766,121.7398378,-0.831173394,1.034133333,1.106079409,,,
,-128.7336471,-245.1712188,126.1037708,-1.116559939,1.341188379,1.315291539,,,
,-142.1941446,-255.7340969,133.1246811,-1.314821713,1.668720489,1.345327217,,,
,-164.791199,-261.5423419,145.9127553,-1.527569317,1.850602548,1.149206218,,,
,-181.252391,-258.0381893,163.8862121,-1.747894088,1.848036799,0.781885423,,,
,-185.6047503,-242.5122363,176.7168571,-1.946867176,1.82088002,0.373608767,,,
,-185.8510649,-217.3558941,178.5723236,-2.130010296,1.822293782,-0.055183384,,,
,-179.7660812,-182.3755029,166.131691,-2.249987768,1.734382977,-0.573428135,,,
,-158.4629947,-138.6826581,143.8851149,-2.40781998,1.553291335,-1.101874924,,,
,-117.0140246,-97.5178178,122.5250764,-2.734348114,1.384801529,-1.56581947,,,
,-62.74128499,-58.02567045,106.0245222,-2.740280734,1.101836391,-1.794771764,,,
,-49.75416524,149.2457081,54.05908363,-2.062922222,1.480370031,-2.882183078,,,
,-64.48657173,305.2679025,-92.84483132,-2.155865341,0.549681651,-2.28878634,,,
,57.44589446,265.662195,-112.8672425,-1.612478186,-0.226959123,1.90652263,,,
,15.3473048,176.8924114,-76.10707255,0.042540673,0.38999001,2.256328644,,,
,72.60618583,266.7607269,-82.97437279,-0.768080938,-0.207408359,0.970065647,,,
,151.2404606,224.4013269,12.20680853,-2.118735678,0.932199388,1.340448726,,,
,127.7992675,166.3396747,2.475693337,-1.649474312,0.454515902,1.230872171,,,
,104.9666702,167.2008875,-29.58713947,-1.45552895,1.768545158,1.574154944,,,
,11.27764287,91.46755537,-23.50370278,-0.283511927,1.101097452,0.712834964,,,
,-16.6559404,62.10891147,-16.59411825,-1.551859633,0.85246422,1.374008053,,,
,-6.921444757,28.28933277,-13.3000693,-0.541302345,0.72363894,0.986150765,,,
,-18.06031725,23.24123082,-13.1969369,-0.583952497,0.484765545,0.955562589,,,
,-7.994881186,8.469404832,-8.603133181,-0.471956167,0.483124873,0.893151988,,,
,-4.444261729,6.929752645,-8.114056407,-0.298625994,0.504276758,0.873695107,,,
,-2.924892248,10.70835201,-9.350442033,-0.309594292,0.475116208,0.842795107,,,
,0.578801965,8.686383949,-7.002976651,-0.410536188,0.390479613,0.866695923,,,
,5.320027719,8.379507754,-3.08411722,-0.356893476,0.433589704,0.846901529,,,
,5.317392113,9.698513894,-3.227585852,-0.328453313,0.46752895,0.824554434,,,
,4.306923746,9.86066095,-3.086409051,-0.348950153,0.439826198,0.823412844,,,
,6.851601202,8.821086326,-0.281551461,-0.4041421,0.402921101,0.835481448,,,
,10.89095366,7.075684995,1.506248748,-0.364763303,0.406657085,0.836145668,,,
,12.29338245,8.666215834,0.560410019,-0.282741794,0.479766871,0.815762895,,,
,10.31770938,10.487133,-1.865550581,-0.296788073,0.513892151,0.778060958,,,
,9.58317749,8.576433348,-2.969181886,-0.366161366,0.459302243,0.786531702,,,
,10.45613599,6.037829245,0.571983767,-0.419763303,0.41548002,0.790777268,,,
,16.08349827,1.424774149,3.545577428,-0.440283282,0.409315698,0.805224873,,,
,13.81447081,-1.70048144,2.923230671,-0.359167074,0.475325892,0.826824567,,,
,8.928057547,-0.385371413,-2.638871717,-0.249614577,0.541371865,0.816682875,,,
,4.177779059,3.550046499,-7.663768876,-0.238604077,0.522827523,0.816395617,,,
,2.504455818,4.284177322,-10.61014704,-0.292997859,0.49826157,0.828470133,,,
,2.007357635,5.560154331,-10.75900148,-0.371038736,0.456017635,0.842603874,,,
,6.516478187,6.761876011,-9.400805024,-0.42697686,0.419174006,0.839143221,,,
,10.48266393,5.838497228,-9.199983316,-0.441950765,0.390698675,0.833987564,,,
,16.92838183,8.512777737,-7.5982798,-0.432469929,0.418448318,0.831493782,,,
,20.88574403,8.838733427,-7.905442474,-0.353707543,0.441335372,0.835961468,,,
,25.82211921,11.51593602,-11.26480862,-0.339616412,0.423452599,0.862034251,,,
,36.33916061,12.5940707,-14.66204727,-0.323914577,0.413320082,0.877202956,,,
,37.81613121,34.73430582,-14.78122249,-0.267165341,0.448654332,0.871314373,,,
,54.30133019,40.33485368,-13.06945379,-0.328650153,0.421023547,0.883544546,,,
,65.63243002,58.72525192,-13.28700586,-0.369703568,0.373236901,0.906152192,,,
,83.2878953,73.25763884,-10.770919,-0.390899388,0.371856779,0.880203568,,,
,100.4007695,93.71715956,-9.298016395,-0.421644648,0.344940469,0.883183894,,,
,117.4625359,121.3298292,-17.95993505,-0.267539042,0.418074924,1.001853721,,,
,135.3460384,137.4774987,-16.08653494,-0.281320489,0.55196055,0.89671366,,,
,158.0530434,164.9896142,-24.62435094,-0.256144546,0.403160449,0.858536799,,,
,187.2742347,191.5342332,-37.1837004,-0.160830683,0.479174516,0.8751684,,,
,212.5982817,226.5927759,-51.43333265,-0.043552497,0.504922018,0.908301937,,,
,258.5216511,292.2173564,-79.66783336,0.175866361,0.553488175,0.743265443,,,
,315.6594662,372.8035265,-112.4527649,0.081259531,0.518958512,0.770229256,,,
,365.0602884,444.8837943,-132.8920602,-0.618293782,0.950638022,0.988350459,,,
,334.3523288,402.9878026,-129.8729737,-0.595275127,1.047483588,0.656097146,,,
,354.1762675,407.7590513,-112.8352142,-1.854709684,1.569173089,1.174769623,,,
,371.5254295,381.7324435,-95.21429828,-1.397214679,1.180545158,0.780357187,,,
,374.5386719,291.8521531,-96.35230705,-1.743360856,2.096646687,1.525391845,,,
,365.7186169,203.8481849,-101.1314626,-1.580631702,2.053010703,1.917255148,,,
,251.0055908,83.53913729,-100.6668511,-1.657231906,2.482414883,1.837445464,,,
,121.0648362,7.098087645,-64.54770633,1.158509582,0.73909949,2.066776147,,,
,-49.35194887,-142.7948335,8.717380966,-1.635104077,3.807255861,3.121343935,,,
,-177.1737909,-190.1602804,59.31322121,0.268488073,1.228471458,1.667492355,,,
,-200.1927141,-186.5822163,62.38845758,0.631630683,0.320321916,1.048789704,,,
,-181.676036,-190.4840016,68.74387733,0.210457798,0.027524669,0.89302579,,,
,-146.6506676,-201.5083971,74.85281064,0.112249643,-0.02731366,0.787109276,,,
,-127.8318688,-221.3321639,76.06238184,-0.030890928,0.161370336,0.775195515,,,
,-130.669958,-238.624202,71.13041843,-0.129959429,0.379153925,0.784098981,,,
,-144.0267501,-250.7073662,67.21625726,-0.212588379,0.486578695,0.794743731,,,
,-157.1496035,-261.8813038,69.58400535,-0.356725688,0.509329052,0.808179613,,,
,-163.0162903,-279.8372281,75.70542913,-0.545765953,0.542211009,0.829655046,,,
,-165.9446776,-302.1535904,82.96050721,-0.648052396,0.592729358,0.810320795,,,
,-169.3876956,-318.5719252,88.49694109,-0.639270336,0.629852803,0.777545566,,,
,-171.9923044,-323.735822,92.48724836,-0.61629317,0.698548012,0.747617839,,,
,-173.6942755,-319.7769128,93.3759059,-0.629535576,0.783541081,0.720102345,,,
,-168.0809507,-310.3806341,94.76699013,-0.667352396,0.856822018,0.749091641,,,
,-155.4784575,-300.5331512,99.86631451,-0.78793527,0.985714883,0.823607034,,,
,-133.493494,-291.6616446,109.1445066,-0.906226911,1.049784404,0.904161876,,,
,-105.8135018,-286.175631,119.5269602,-1.182058308,1.303802446,1.057084913,,,
,-101.9046692,-295.7702677,136.2856892,-1.597732926,1.85610265,1.178023038,,,
,-137.0952213,-301.2209297,156.0156628,-1.770204587,2.316909582,1.029724057,,,
,-187.1800405,-284.0430248,177.9440754,-1.824202752,2.367224159,0.621403058,,,
,-213.5124359,-249.4527033,197.4328337,-1.918509684,2.073082365,0.156582059,,,
,-210.0083406,-206.3289202,206.300215,-2.06567686,1.87603476,-0.241548318,,,
,-198.7924626,-158.0104726,197.634744,-2.226016208,1.797978287,-0.682675739,,,
,-176.9862618,-109.7832399,181.5631633,-2.588651172,1.610508767,-1.197915189,,,
,-140.2806374,-66.43978485,174.9215511,-3.167725178,1.282128236,-1.809548114,,,
,-74.01606307,-22.55270744,147.2905469,-2.99136371,0.915943731,-2.204503058,,,
,-16.87813343,58.92859464,71.02854654,-1.6494421,0.510515291,-1.721301325,,,
,-9.114211534,256.9757537,-37.4674291,-1.659378593,0.774869113,-1.453934659,,,
,8.952350957,250.8936921,-122.4551183,-1.312527625,0.465656269,1.280734047,,,
,-42.62668486,173.9249483,-126.8096548,-0.168810907,0.115945566,2.276934659,,,
,8.670455722,230.4609858,-73.9844931,0.206268603,-0.441229052,0.837013761,,,
,116.0484761,267.5251672,-14.46867402,-1.100785525,0.583095821,1.063149235,,,
,115.4881234,188.4728051,30.40377622,-2.397021305,0.580198573,1.629050765,,,
,126.7810069,127.1182499,-15.83002174,-1.586709888,-0.119196126,1.136593884,,,
,148.7167534,91.32380026,-9.495228468,-0.852265443,0.403123751,1.134863609,,,
,49.3270252,107.2917329,-6.22891067,-1.099584913,2.170718349,1.41758053,,,
,30.65152317,94.62088589,-13.65478747,-0.618100612,0.702843323,0.836282569,,,
,-6.770012011,42.25672601,-16.67032164,-0.67660051,0.816721814,0.955992661,,,
,-10.86001394,31.23571093,-10.81211466,-0.62969735,0.640428338,1.030756167,,,
,-0.444099587,12.565652,-3.886258133,-0.604544546,0.43997788,0.984705505,,,
,4.329211804,8.978477833,-1.853575763,-0.350664832,0.528998675,0.904468298,,,
,6.0547315,8.01573685,-1.579988416,-0.360038634,0.515269317,0.871230173,,,
,6.945394393,2.118454152,-1.253345177,-0.38361315,0.483057187,0.841388889,,,
,8.277292083,0.307449153,-0.275019742,-0.356071662,0.469075025,0.845397554,,,
,8.411536095,2.741545754,1.131820829,-0.3095158,0.479850866,0.814818858,,,
,7.865564612,5.799192323,1.147290689,-0.295299185,0.482948114,0.80050897,,,
,6.797571281,6.154827227,0.929853206,-0.318144648,0.462206218,0.79632528,,,
,7.330651214,6.488460551,1.915283318,-0.328442813,0.433646177,0.809718654,,,
,8.548071937,8.144881537,1.376817582,-0.293796432,0.4366158,0.812821203,,,
,6.276981829,9.474200917,-0.338503465,-0.259043323,0.504451988,0.796615087,,,
,1.120017898,9.892517403,-3.951116955,-0.251842406,0.549275637,0.768554944,,,
,-4.038722202,8.877522669,-7.883899261,-0.305429664,0.532438532,0.775962385,,,
,-5.794207591,7.464666042,-9.309131776,-0.323636391,0.492298675,0.798064016,,,
,-5.992508283,6.401199079,-9.06539553,-0.32215525,0.464425178,0.824404689,,,
,-3.864772215,5.665406678,-9.607757379,-0.356893272,0.428967584,0.845337819,,,
,-2.657034479,3.115973673,-9.457928916,-0.319084302,0.448894495,0.849178695,,,
,-3.216413175,4.108050095,-12.07772114,-0.309541896,0.492910398,0.828836901,,,
,-4.557707373,2.418626741,-12.57040755,-0.318959633,0.503000815,0.819743425,,,
,-3.318514254,1.430159952,-11.4809283,-0.341057696,0.486051172,0.831873904,,,
,-0.652255154,2.870690441,-10.76478835,-0.364693272,0.459915189,0.826920387,,,
,3.029113271,5.563477486,-10.53944405,-0.375774312,0.449083384,0.844253007,,,
,6.514071764,7.864819766,-9.807318579,-0.377382671,0.41976524,0.84734159,,,
,10.79595725,12.11192672,-10.1817465,-0.327748012,0.424266463,0.841554842,,,
,16.1020621,19.39490784,-11.1334294,-0.30809052,0.434948624,0.856674006,,,
,22.54795189,25.64375745,-10.84357005,-0.309731295,0.420992151,0.876894597,,,
,37.91187246,28.93431136,-12.93062611,-0.39213211,0.227928033,1.001212742,,,
,44.98612506,56.74831834,-14.72673421,-0.108045668,0.498304281,0.874002345,,,
,72.02314397,64.66235518,-13.10434692,-0.341431193,0.375349949,0.936604689,,,
,85.35432488,87.37835559,-13.31043983,-0.398143527,0.334675535,0.926935576,,,
,110.7715921,106.9410255,-12.23591479,-0.459240469,0.373853619,0.814915596,,,
,113.0055546,136.2977786,-26.7521443,-0.240879511,0.429383486,1.049462181,,,
,151.0340239,154.8808626,-24.58246772,-0.264047604,0.556455352,0.918093782,,,
,171.6235488,185.9742508,-35.85174541,-0.155459123,0.434272681,0.913824261,,,
,202.3160384,217.6055891,-55.08410513,-0.057743017,0.566575943,0.933620591,,,
,231.5074932,256.69764,-75.22042036,0.094362385,0.523133231,0.87876422,,,
,276.5255893,334.8074292,-114.9403184,0.264007543,0.540035474,0.762994699,,,
,335.8855639,430.3524387,-155.1167493,-0.017999286,0.62476157,0.814674924,,,
,363.6056058,467.2434723,-158.9937828,-1.250817839,1.455074108,1.49269633,,,
,339.2232149,481.1575805,-173.8577977,-1.200658919,1.683327625,1.066025076,,,
,325.3207951,428.3463416,-133.2155522,-2.075711009,1.525580224,1.048354842,,,
,348.6720338,326.4269474,-120.1054757,-2.121113558,2.352041794,1.801904077,,,
,283.88655,247.7517062,-138.0690776,-1.344162589,2.260605097,1.90682895,,,
,224.012174,162.8187917,-118.8262328,-1.082864424,1.740329358,1.802687666,,,
,156.3003655,65.65208248,-64.99724901,0.672445362,0.342458716,2.290846075,,,
,26.76102515,-129.3087248,27.46960205,-1.65698053,3.301829154,3.189258104,,,
,-81.92465682,-181.9605668,88.06504551,0.562630071,1.159991641,1.79590683,,,
,-141.7058127,-159.3819617,99.85938172,0.80466208,0.528255657,1.20149419,,,
,-157.4284621,-148.2448081,107.8057334,0.357276249,0.100395617,1.086484506,,,
,-149.6272406,-155.2950538,110.4400787,0.088000102,-0.040459225,1.016947401,,,
,-147.901148,-187.2988146,105.625629,-0.234799388,0.150163405,1.042558512,,,
,-162.521885,-222.7927479,95.14812166,-0.398452396,0.321907951,1.038852497,,,
,-182.9105309,-254.7922116,85.22558126,-0.483318349,0.428748828,1.002130173,,,
,-202.9297908,-280.8220853,82.34377544,-0.569776351,0.481641794,0.954455963,,,
,-218.1028591,-301.4996737,81.83155117,-0.641201019,0.533049134,0.880007034,,,
,-228.086706,-316.8906952,79.986226,-0.696886035,0.521219776,0.789529052,,,
,-224.8667405,-329.9445072,76.38209229,-0.723603364,0.4905684,0.757430479,,,
,-212.909627,-339.6505269,71.88746757,-0.658868807,0.430505708,0.679659225,,,
,-181.6280221,-330.9243224,62.96445205,-0.561040061,0.368827523,0.594911621,,,
,-143.8492478,-305.0430166,54.18771266,-0.635054638,0.552427013,0.648261876,,,
,-116.8948494,-277.8420745,47.44382752,-0.747156677,0.897517635,0.86059368,,,
,-102.0831455,-267.8900267,52.46282322,-1.176279715,1.39086473,1.280993374,,,
,-112.6475132,-285.5929329,69.35860375,-1.443988583,1.915624159,1.428042508,,,
,-138.8165011,-291.4576143,103.2845234,-1.600815698,2.186712232,1.258804995,,,
,-164.5868249,-291.1749742,141.4718167,-1.73514475,2.324321814,0.878915392,,,
,-187.8614592,-274.179098,171.8911774,-1.910544139,2.24309052,0.473104689,,,
,-200.2459992,-245.1562646,194.2117223,-1.985190826,2.109093476,0.070335066,,,
,-205.9396527,-199.3379184,195.5633297,-1.958835882,1.995874618,-0.399214679,,,
,-192.3916646,-143.5474136,178.4404287,-2.134263303,1.742802956,-0.849668603,,,
,-153.3013898,-101.6154974,171.2557099,-2.675088889,1.494711825,-1.307328644,,,
,-88.15116106,-82.28401594,177.1112812,-3.300932008,1.165266259,-1.805185219,,,
,-17.61043079,-53.76206231,143.6387431,-2.678215902,0.954643017,-2.080976045,,,
,22.88519484,94.16618659,60.34145126,-1.299561162,0.940366972,-2.253908869,,,
,12.32581186,269.714439,-50.96602827,-1.264499694,0.993292559,-1.799091845,,,
,11.73331621,266.8492489,-112.5856911,-1.395948114,0.148170438,0.860704077,,,
,14.72071815,180.2657004,-81.94178825,-1.085937615,0.151987462,2.44716106,,,
,32.56571786,203.3364763,-54.09529457,0.041963609,-0.213405403,1.0961684,,,
,110.3540205,253.1388272,-34.17687518,-1.15463527,0.086691845,1.015211213,,,
,131.698761,179.8701876,0.164438887,-1.966488175,0.910944852,1.535154027,,,
,116.8197919,137.4748058,-3.611066504,-0.982543119,0.256247604,0.916785831,,,
,89.52608788,162.2394168,-24.35592021,-1.448347503,2.171936086,1.372676147,,,
,-3.549129766,88.19207025,-34.22574848,-0.439843833,0.916869929,0.803099083,,,
,-41.57175497,35.01362275,-25.71251238,-1.343773191,0.589381549,1.224166463,,,
,-25.48544921,21.1101143,-17.15515853,-0.56488002,0.746120999,0.975072477,,,
,-22.85964093,15.63332533,-14.39865857,-0.552306014,0.548050968,0.921539959,,,
,-12.69697392,4.960897773,-9.002713948,-0.481396126,0.481627421,0.888700306,,,
,-9.998113525,3.750123361,-7.853647089,-0.303320387,0.51666157,0.866053109,,,
,-7.653341044,5.543137485,-10.58550986,-0.300119368,0.498234862,0.841069725,,,
,-7.74638939,6.356508371,-10.83715292,-0.382102141,0.422098879,0.845899083,,,
,-2.585758529,6.102286997,-6.912506615,-0.397128848,0.397400408,0.861739857,,,
,0.874161708,6.688136343,-3.980910761,-0.372665443,0.419739653,0.850343221,,,
,1.888927259,7.422840123,-1.493357197,-0.364762691,0.422066157,0.840839755,,,
,5.478507845,6.752937869,0.247861542,-0.389966565,0.396714985,0.833591437,,,
,7.555422557,6.15763472,2.687172059,-0.382096942,0.384356473,0.831833231,,,
,9.686653668,4.680664116,3.063261556,-0.333249439,0.408891233,0.832322222,,,
,8.284282168,4.269051236,-0.505807142,-0.283486137,0.472126809,0.797109174,,,
,5.290749576,4.285781603,-5.376865133,-0.299955148,0.50155107,0.780441081,,,
,2.235566725,3.395519781,-8.304392987,-0.344079511,0.469295107,0.778274618,,,
,1.762188995,1.743567866,-9.045628486,-0.35362579,0.435288889,0.803300102,,,
,2.659899268,2.334172762,-7.900572333,-0.366356881,0.38506422,0.836139653,,,
,6.008379214,3.220767654,-8.413827926,-0.34116106,0.405781448,0.844933741,,,
,5.834314636,6.32339141,-10.14123838,-0.303308257,0.433475025,0.834797044,,,
,4.935229264,9.201931373,-12.70127111,-0.303297961,0.450438634,0.836384608,,,
,5.255971038,11.24767718,-12.52411256,-0.3521316,0.43979103,0.835145158,,,
,7.037411414,11.59884301,-12.59836789,-0.38836208,0.421405097,0.830493884,,,
,10.35575378,12.92306307,-12.33394786,-0.434848522,0.416891743,0.836986239,,,
,15.14917599,11.76580291,-11.30113414,-0.432507238,0.403757288,0.840793782,,,
,20.94934234,13.26311352,-11.47113072,-0.388436697,0.39202314,0.849093884,,,
,27.9888164,15.39285494,-10.89656864,-0.380617125,0.3842158,0.867556167,,,
,39.62404224,16.52885836,-13.76445159,-0.282904485,0.444095821,0.865445668,,,
,45.34491123,37.70537847,-8.538560838,-0.393482467,0.295279001,0.938412029,,,
,60.89590252,50.84519147,-6.629350873,-0.354068909,0.337585015,0.938373598,,,
,77.23465349,68.07580854,-7.557313318,-0.378505403,0.317595413,0.940446279,,,
,94.6031242,87.70574367,-8.244690785,-0.41075739,0.31774577,0.92641264,,,
,110.2369079,116.4171744,-11.57346098,-0.316176656,0.24592212,0.875144241,,,
,125.0880312,136.0797682,-16.20038166,-0.281556473,0.3667263,0.925894903,,,
,152.1719754,157.1025064,-24.97471463,-0.262632824,0.365161162,0.916909786,,,
,177.4627335,185.7668974,-38.65316525,-0.150658614,0.425121203,0.882603976,,,
,207.0663742,226.8440179,-58.86333474,-0.029260856,0.469606218,0.85349419,,,
,244.9733192,289.374569,-81.25343676,0.005502548,0.554406014,0.838875739,,,
,291.2743251,370.1944486,-120.3774587,0.2675316,0.526692559,0.618305708,,,
,334.1172443,470.8721859,-153.34694,-0.409146789,0.883269113,1.094607849,,,
,321.6029293,436.3763451,-140.6969486,-1.179817431,1.268596636,1.387328236,,,
,335.0997523,486.032821,-151.7599614,-1.300029969,1.676491233,1.116471458,,,
,346.6596342,467.0927271,-112.0773629,-1.857699388,1.441524363,1.073535576,,,
,371.9796705,378.2342496,-101.746762,-2.024338124,1.714493782,1.632102141,,,
,353.1493552,292.1927192,-102.7429637,-1.57949684,1.924490112,2.041349847,,,
,285.6226121,148.0402621,-75.2876856,-1.686556167,2.253070846,2.129162283,,,
,178.2071203,54.30373661,-28.12472199,0.667258104,0.956539348,2.069851172,,,
,6.313880311,-112.9771931,54.55555156,-1.560572477,3.977654128,3.283216616,,,
,-158.7019754,-159.0564644,107.8003476,0.242765545,1.515934455,1.955474516,,,
,-212.6536294,-165.0833501,110.7899841,0.394634455,0.427841081,1.358337615,,,
,-195.7733188,-188.3725948,107.7454009,0.048231906,-0.139511111,1.131927115,,,
,-153.897094,-218.9832661,105.2561858,-0.045875739,-0.288118349,0.934786442,,,
,-125.7265354,-245.4499055,95.27835496,-0.121108053,-0.095529358,0.856814067,,,
,-127.3932696,-263.7800286,78.12560286,-0.212091233,0.254269623,0.829257288,,,
,-152.2221092,-271.9656474,63.80618435,-0.274920183,0.474273496,0.834229664,,,
,-180.9597815,-280.5600144,57.14159657,-0.426130173,0.591056371,0.872107951,,,
,-202.3413632,-297.1431891,59.76912372,-0.596235678,0.637797044,0.885405607,,,
,-212.8422471,-318.5843011,69.70438378,-0.707914373,0.684574924,0.84295841,,,
,-216.6167212,-333.5641681,78.84644106,-0.717212538,0.694065749,0.788776147,,,
,-215.9390267,-343.0940605,85.21463777,-0.745493476,0.728149439,0.773163812,,,
,-207.9732518,-346.7387596,88.62751817,-0.650774924,0.648048216,0.667463303,,,
,-177.2189973,-327.7678406,86.46156582,-0.59395209,0.555600204,0.592918247,,,
,-135.8663987,-293.6460839,81.18605692,-0.668101733,0.672751988,0.675679918,,,
,-98.06144016,-264.3290368,76.36845589,-0.972810296,1.036272579,1.061118552,,,
,-89.17572419,-274.8024188,83.28050414,-1.567107849,1.689119062,1.453725892,,,
,-111.3066774,-290.8640301,99.34664179,-1.687931804,2.115400612,1.418448624,,,
,-145.8278429,-298.1209989,132.8444474,-1.992660041,2.302413048,1.163026096,,,
,-181.0178794,-297.6447564,167.9080321,-2.070015189,2.276913048,0.629162487,,,
,-206.8979246,-269.1357516,190.1888137,-2.049785423,2.146243935,0.088204281,,,
,-222.1503476,-218.8340679,190.4190855,-2.037555148,2.072431295,-0.387942304,,,
,-215.3016112,-167.9294034,177.4414768,-2.299744546,1.843313558,-0.781181142,,,
,-174.1730391,-138.1248837,173.5808872,-2.845310499,1.526649032,-1.255191131,,,
,-100.8578753,-123.9974634,183.2072084,-3.455099694,1.13364526,-1.887238124,,,
,-18.25844606,-91.94757941,153.3170888,-2.715453925,0.954021203,-2.293115494,,,
,26.02248255,46.67445979,73.37429305,-1.116524363,0.901764628,-2.388748114,,,
,-5.209504161,277.504144,-33.69553334,-1.22735209,1.255665851,-2.060606626,,,
,-9.975367101,288.3418125,-122.2751522,-1.631591947,0.021520285,0.882929766,,,
,-13.03112291,166.1446972,-83.76121573,-1.08775739,0.288004485,2.582723344,,,
,1.026969552,216.9639909,-36.59618947,0.013090724,-0.43517105,1.220764628,,,
,119.8707349,259.2982381,-21.2743813,-0.974780224,-0.16920051,0.822497044,,,
,147.5499249,192.2824588,10.86568622,-2.236104281,0.652502854,1.555564322,,,
,138.9238734,133.2362932,-17.49016695,-1.444336493,0.414377676,1.076870234,,,
,145.8095656,115.9168104,-8.01940378,-0.472991437,1.328264628,0.961679715,,,
,32.95997012,91.05090046,-16.18806306,-1.026226402,1.562045158,1.178409684,,,
,20.5697578,90.35063145,-20.71248159,-1.182622528,0.985589806,1.166855148,,,
,-8.247383686,45.33093106,-16.10590092,-0.713167278,0.736223242,1.057721101,,,
,-8.996354116,25.6199797,-7.799789057,-0.656495005,0.55419317,1.01098787,,,
,-1.975100111,10.60516231,-3.151497056,-0.547709378,0.483909378,0.949293374,,,
,0.356379749,6.716153979,-1.359456961,-0.331677982,0.55063578,0.879203364,,,
,-0.491368605,6.96796893,-3.374950596,-0.378901733,0.490727217,0.849069725,,,
,-1.738010176,6.425148715,-4.581886192,-0.35996789,0.464523547,0.828376351,,,
,-1.386328681,6.891994726,-7.406109756,-0.290623344,0.468225688,0.814365341,,,
,-2.618187941,9.759877674,-8.685868287,-0.283506014,0.482884098,0.80801315,,,
,-4.120597871,11.41543922,-8.126260408,-0.328430479,0.465250459,0.815221509,,,
,-2.576075543,10.32469947,-7.03380178,-0.356830071,0.435221101,0.823583486,,,
,-0.904929542,6.801295507,-3.800314464,-0.349758104,0.415916922,0.823384404,,,
,2.077029303,7.097400096,-2.061387555,-0.333215189,0.415103364,0.82145107,,,
,3.902530134,6.380744485,-1.888067822,-0.296949235,0.443555148,0.816016004,,,
,1.653212422,6.349747469,-4.795828633,-0.268497452,0.51063843,0.79995209,,,
,-1.342955776,5.501483453,-9.573150728,-0.261343017,0.529972273,0.78117105,,,
,-3.950658589,4.035055272,-12.75805122,-0.241699898,0.538322732,0.800949949,,,
,-5.184007539,5.519474328,-14.35878071,-0.284346177,0.484352192,0.828245668,,,
,-3.546207681,4.608987096,-14.08651117,-0.351407238,0.41658634,0.851407034,,,
,1.794217335,3.716032372,-11.18831875,-0.410508053,0.409009582,0.862067584,,,
,7.533650161,1.593968586,-8.198567682,-0.37429735,0.391928542,0.862763201,,,
,10.91455952,2.645689915,-6.752823278,-0.363184913,0.439784709,0.845502345,,,
,11.19972061,2.320765549,-7.417225137,-0.364671662,0.470731702,0.822277064,,,
,13.0394308,2.786293758,-7.027270062,-0.3812,0.469254944,0.817987054,,,
,14.77784204,3.652949719,-6.741306826,-0.364671254,0.461487462,0.819149643,,,
,16.49774675,7.360445019,-8.390451248,-0.333242304,0.434324771,0.83781315,,,
,22.52262715,14.63763927,-9.337034821,-0.301090826,0.39628104,0.877426606,,,
,30.81510262,23.63353502,-8.998817835,-0.330316106,0.382378287,0.905272069,,,
,53.37703467,25.06696083,-11.09991137,-0.401538736,0.251131397,0.99214475,,,
,55.81388147,62.58658638,-9.388257248,-0.268976555,0.385148522,0.939635984,,,
,81.82238385,68.30126743,-6.255667799,-0.32243578,0.407014577,0.911359225,,,
,100.5370762,93.10271962,-7.709147133,-0.439078797,0.2993842,0.909143935,,,
,126.164046,110.0119074,-7.934777913,-0.36325107,0.542154027,0.903226402,,,
,154.931512,137.3528804,-14.34061795,-0.316452905,0.349532314,1.012162589,,,
,165.6981911,164.8865391,-31.52173147,-0.095583282,0.458778186,0.913284506,,,
,197.4951142,199.9662812,-47.94018086,-0.08624526,0.440099388,0.949569317,,,
,228.1447466,245.1838239,-62.84688111,-0.105190316,0.531001121,0.995264118,,,
,273.3958647,308.8271737,-93.90193845,0.261508869,0.445858919,0.783855148,,,
,333.9249023,405.5847911,-133.7133952,0.213592864,0.461588379,0.742225484,,,
,381.5468624,486.902972,-160.1604968,-0.539944139,1.07000683,1.178797146,,,
,356.4384767,448.8537043,-151.2654989,-0.617274108,1.173970846,0.677056779,,,
,361.3082742,453.7971842,-133.1674237,-2.123379511,1.835187768,1.008072069,,,
,407.0990612,395.0603585,-95.35427187,-1.714433741,1.490303874,1.114672375,,,
,362.5792092,288.7412214,-106.7967547,-1.608789602,1.964005505,1.815893272,,,
,342.752635,193.2948179,-93.86200329,-1.617467788,2.135453517,2.172441794,,,
,244.9816844,76.71005333,-89.23456696,-0.115357492,1.157173394,2.056993476,,,
,181.7862731,-9.278765013,-44.12502679,-1.560903466,2.827736799,3.038447808,,,
,-68.70869772,-192.3925813,40.96126844,-0.537668603,2.366938736,2.515174414,,,
,-150.8035803,-213.534552,73.58972518,0.728548114,1.010798777,1.547751886,,,
,-187.4296782,-190.2551622,76.58491935,0.485027625,0.343702548,1.101149337,,,
,-174.7983652,-192.512616,83.36513001,0.289922936,-0.02752263,0.904320897,,,
,-151.0951585,-202.6939614,87.07761004,0.053828236,0.003472987,0.850687564,,,
,-145.1203546,-222.8175569,86.78162005,-0.150690418,0.275617125,0.846555046,,,
,-160.6448753,-246.4799117,81.78657399,-0.309694801,0.527360347,0.897312436,,,
,-186.1981627,-268.9471912,78.19452968,-0.421449439,0.664937513,0.912566769,,,
,-211.4242912,-289.4139312,83.30949581,-0.547327319,0.736377472,0.886815392,,,
,-229.9971765,-307.2958867,90.48281281,-0.619494088,0.746250153,0.781986442,,,
,-236.3204533,-318.4376812,98.27824739,-0.611411825,0.706460652,0.691554536,,,
,-231.567883,-322.3639891,103.5101542,-0.641275943,0.718966259,0.672049439,,,
,-221.7776386,-325.1170513,106.2378917,-0.584401427,0.643541081,0.583544648,,,
,-184.9268266,-309.2606735,104.4433879,-0.5733421,0.555729969,0.542699796,,,
,-142.863302,-279.1780402,100.2841153,-0.685289704,0.726929562,0.641198165,,,
,-109.0687042,-257.3999144,90.00525249,-0.959987156,1.112052192,1.001897859,,,
,-104.680707,-272.9128613,83.29207789,-1.544918756,1.769371967,1.427725382,,,
,-121.7923207,-301.2455096,85.38824398,-1.598151478,2.138243731,1.425774312,,,
,-139.7996967,-315.4695307,106.607163,-1.803815596,2.32163894,1.231826911,,,
,-152.9943417,-332.5256248,141.9373449,-1.980579511,2.149805301,0.717821713,,,
,-160.3437287,-321.5961111,162.9479937,-1.86099949,2.10144261,0.158435678,,,
,-173.8674234,-272.8079527,169.0575,-1.801631295,2.166767788,-0.229898063,,,
,-183.7975268,-212.3497326,172.0165405,-1.997814577,2.00503629,-0.546,,,
,-163.2573336,-162.211743,184.6321544,-2.454268807,1.678259735,-1.067923649,,,
,-115.6880857,-117.0981921,207.8458833,-3.193471662,1.472072171,-1.839682365,,,
,-62.85885593,-63.65366298,203.0866667,-2.845639551,1.207887258,-2.417131906,,,
,-1.535297708,52.27105424,131.4357161,-1.927258716,0.635237411,-2.047418654,,,
,42.59333872,136.8340671,57.32929754,-1.746272171,0.616876656,-0.814078593,,,
,-29.14407121,292.8716742,0.296620251,-1.455107747,1.473139348,-0.453697859,,,
,-60.46521015,299.6777825,-86.46763917,-1.131352294,0.609178491,0.720319368,,,
,-63.22606458,233.278162,-87.13628092,-0.111772171,-0.509314577,1.950265647,,,
,14.36324978,254.6011874,-35.05917289,-0.156887564,-0.807705912,1.347505505,,,
,98.60414578,274.9433664,-19.86238411,-1.727175331,-0.273260041,1.193130173,,,
,115.905695,196.3094354,-38.19078831,-2.635272171,0.14889633,1.645298369,,,
,146.0915181,124.1445416,-33.318699,-1.160760856,0.424397757,1.057987462,,,
,141.4169273,138.72351,-6.034219611,-0.382059327,1.613149541,0.620472987,,,
,10.25582994,114.2749998,-23.47975315,-1.075645464,1.39108787,1.345549439,,,
,0.569577344,93.8890469,-26.73025731,-1.846801529,0.966025994,1.560516922,,,
,-17.79675667,36.36190703,-23.73042218,-0.561783894,0.5896421,0.945157187,,,
,-29.21219589,25.15267532,-21.6640499,-0.451400714,0.633405607,0.911633231,,,
,-18.15158943,11.32897989,-14.68307482,-0.553160449,0.440101019,0.912020285,,,
,-11.02817705,7.142892945,-12.0008302,-0.326920591,0.578402141,0.876039959,,,
,-10.86574351,10.40863779,-15.01361418,-0.289080326,0.520562793,0.84319368,,,
,-8.502235314,10.52557847,-14.51726084,-0.410504995,0.402850663,0.858946177,,,
,-1.793930857,7.373852232,-8.639458705,-0.442059327,0.362809072,0.86580581,,,
,3.966300337,6.303395183,-4.609617349,-0.408162283,0.388947808,0.861974822,,,
,6.669457918,7.406224347,-1.529224355,-0.390793782,0.418232008,0.855417533,,,
,8.956820028,5.762523025,1.523609369,-0.4136316,0.396730581,0.848122936,,,
,13.06206263,4.954251463,3.886487316,-0.399422936,0.390571764,0.833795005,,,
,15.44539517,5.144416155,3.817675085,-0.355267074,0.430576656,0.826648012,,,
,14.82579861,5.617335519,0.934666051,-0.320507543,0.481472987,0.802635372,,,
,11.5949469,6.118730886,-3.062745894,-0.315687666,0.51703262,0.778498063,,,
,8.599695434,5.799020436,-5.625356928,-0.351932212,0.489381753,0.776160958,,,
,6.246271291,4.607153631,-6.544037457,-0.369366463,0.433809888,0.798992049,,,
,7.149424663,5.61298104,-5.189737117,-0.391525586,0.376712029,0.821150663,,,
,10.26717451,6.288154506,-4.420369389,-0.396242202,0.392146687,0.822843017,,,
,10.95947941,5.507556806,-4.877876189,-0.37410316,0.435348522,0.803767074,,,
,11.21650828,5.386777302,-7.085711757,-0.345682467,0.470800917,0.789196636,,,
,8.653324284,5.158281734,-7.999808623,-0.281095413,0.495271967,0.793990622,,,
,9.13627041,7.351048512,-7.774235139,-0.290698879,0.442694495,0.834527625,,,
,16.33474026,6.658972791,-6.442967702,-0.379017533,0.410439755,0.86679368,,,
,23.06796838,6.722399219,-5.370906372,-0.421565545,0.396670642,0.870068807,,,
,33.26741928,5.727056937,-3.439465644,-0.425518654,0.381252294,0.870906014,,,
,44.36859115,4.812788183,-2.110432743,-0.432589908,0.384379103,0.86563211,,,
,50.05250436,10.46295418,1.867899708,-0.367871254,0.44447686,0.832403874,,,
,56.98540828,27.58321958,7.902062023,-0.448511213,0.328713863,0.911748318,,,
,66.01625445,45.98255596,7.910427207,-0.378330683,0.391803976,0.898611927,,,
,80.54990188,65.48042432,7.693677273,-0.385449745,0.370209276,0.903395923,,,
,97.66140103,83.20258188,4.722031669,-0.364951172,0.375572681,0.896720489,,,
,117.6410123,99.21572093,2.908219177,-0.354069929,0.389971152,0.955577268,,,
,132.4942556,125.3760571,-8.884913825,-0.24693629,0.321893476,0.923463201,,,
,152.4035649,140.4280595,-25.45347816,-0.120517941,0.58712212,0.854250153,,,
,176.2924673,170.3880799,-42.07435354,-0.122166871,0.509980734,0.857246075,,,
,205.0939097,205.4733796,-55.5433881,-0.178963405,0.540833945,0.902131498,,,
,243.4043889,255.7574163,-74.9632769,0.008634964,0.389504383,0.792619368,,,
,294.3453216,329.3979628,-98.84478806,0.107349643,0.411938634,0.697911009,,,
,360.5856026,412.9508511,-120.6103088,-0.08156106,0.585219368,0.715771662,,,
,350.5492155,390.9751121,-113.8851021,-1.390899083,1.417119674,1.442180224,,,
,360.575232,436.1445264,-117.3849002,-0.846643833,1.474068807,0.846111825,,,
,353.0904552,410.1973305,-113.9452626,-1.861514271,1.734051886,0.825450968,,,
,384.8244102,357.3316034,-84.77053818,-1.796108665,1.718147299,1.101433945,,,
,333.8607883,248.8216476,-104.4749578,-1.510531397,1.938793068,1.877344444,,,
,291.4552079,175.9528179,-107.1948458,-1.508458308,2.243453007,2.083884709,,,
,192.9338545,69.17989821,-97.80229135,0.087886035,0.92167156,1.960174414,,,
,157.4589435,-32.44877718,-71.49424663,-1.973306014,2.91410632,2.964067992,,,
,-67.7899599,-188.7750404,-2.359783975,-0.546693476,2.113341081,2.273912844,,,
,-152.8111671,-213.096182,27.14949053,0.554088379,1.048838634,1.418881142,,,
,-189.2896138,-192.3023404,39.17106181,0.460273496,0.438406218,0.963535168,,,
,-183.8119654,-178.730861,53.52176381,0.417999185,0.047529358,0.742973394,,,
,-165.7904946,-173.4413147,61.4324202,0.235340979,0.025039857,0.716000815,,,
,-155.9188902,-187.1779205,65.55880495,-0.049802243,0.238452905,0.803761264,,,
,-164.8805804,-214.4908186,66.74666105,-0.26563578,0.465533435,0.893854944,,,
,-186.6544663,-242.5157314,68.45659629,-0.330882161,0.596869521,0.890935576,,,
,-210.521367,-262.353421,72.81898235,-0.396098369,0.658912334,0.854454944,,,
,-230.1397284,-278.4846466,80.55929839,-0.46834791,0.710268603,0.794016616,,,
,-242.7901208,-290.0387989,87.34621266,-0.498046891,0.73687737,0.717013252,,,
,-250.5888786,-292.6962918,92.67208455,-0.505805912,0.762490622,0.681483282,,,
,-249.4513855,-292.9851198,96.69447745,-0.477380632,0.759429256,0.652845566,,,
,-235.6743861,-284.0634221,97.09869917,-0.413567074,0.703030173,0.62640581,,,
,-207.5184952,-264.4477536,93.83914228,-0.50111213,0.732385729,0.683649337,,,
,-171.2271766,-243.9147224,89.88114983,-0.643214271,0.803196942,0.83549684,,,
,-130.427826,-239.0061357,83.06409798,-1.012468502,1.071428135,1.177913048,,,
,-115.7628566,-255.87281,72.23387785,-1.329451988,1.529441081,1.471314883,,,
,-118.7824015,-274.0443956,63.40116048,-1.494753109,1.932207849,1.569150866,,,
,-134.0527581,-294.8731303,70.02197428,-1.855483282,2.224039857,1.379728338,,,
,-139.5121864,-323.7320404,98.18428231,-2.116595005,2.204884302,0.944900306,,,
,-136.3456206,-328.1732082,125.2929782,-2.130116514,2.076019266,0.361962181,,,
,-134.2230984,-293.1948224,145.9042182,-2.088548012,2.022434149,-0.182440979,,,
,-137.3677773,-230.7390422,159.5709805,-2.265986035,1.923182773,-0.715721814,,,
,-142.8320185,-161.0066981,173.0834452,-2.78159103,1.828710805,-1.42706422,,,
,-130.2471724,-94.28306998,184.6571354,-3.439565545,1.50379633,-2.278639857,,,
,-72.40255663,-29.28582097,133.9759244,-2.790690316,0.803003466,-2.479808563,,,
,3.687384482,75.67408834,57.8077173,-1.492382569,0.496246891,-2.148552396,,,
,9.267936111,248.3447175,-17.9374751,-1.550160041,0.992564832,-1.585812029,,,
,-31.86562073,263.0848016,-99.56717324,-1.893023038,-0.142157187,0.521672069,,,
,12.68196243,148.4358322,-91.13111456,-1.27490265,-0.365092661,2.263898981,,,
,41.79131239,182.206022,-67.99679766,0.340402752,-0.323342202,1.372095617,,,
,104.0099453,241.593785,-63.6249578,-0.82969633,0.19732844,0.874319572,,,
,143.0104948,199.2726012,16.96911913,-1.494400204,1.231642915,1.211756575,,,
,136.4102502,167.4057773,20.43115931,-1.234189399,0.603441182,0.889777676,,,
,110.5384556,179.7876817,-13.969284,-1.469447095,2.004699694,1.553169317,,,
,14.53834569,96.0407899,-27.676669,-0.774154842,0.860302039,0.931872987,,,
,-17.74902928,34.69895433,-13.70887469,-1.499009276,0.519612029,1.235342406,,,
,0.821220408,12.88266954,-0.046409581,-0.536503058,0.71294475,0.954927421,,,
,-7.006815468,6.657368509,-1.442707728,-0.568023344,0.578962283,0.918849541,,,
,1.59499991,-1.649316309,1.37412468,-0.447526096,0.495401121,0.891064322,,,
,4.822012804,0.627159603,-0.062395104,-0.305661774,0.532107034,0.863027421,,,
,3.897774584,5.33481003,-4.4623099,-0.309556983,0.504444954,0.838187666,,,
,2.920824248,6.121194604,-5.703164597,-0.389948828,0.432178899,0.838324465,,,
,4.756867503,5.267086419,-5.119320604,-0.388358206,0.426033129,0.830502854,,,
,4.741798713,7.067262516,-6.083207502,-0.336323853,0.46910051,0.823182263,,,
,4.202530836,9.105789055,-2.834078438,-0.348904791,0.473788889,0.817259633,,,
,5.801025788,8.225668586,-1.482241816,-0.359944139,0.45839419,0.817481244,,,
,7.704907246,7.240410361,-0.129201983,-0.350528542,0.433663099,0.822659429,,,
,9.555675516,5.553221542,1.580504078,-0.328454434,0.461364118,0.822987666,,,
,10.23703693,3.487708691,0.802427392,-0.292169317,0.492924975,0.811339653,,,
,6.102688067,4.768727729,-2.789559617,-0.288926198,0.533879715,0.789580734,,,
,3.811773619,4.133890492,-5.550872415,-0.309397248,0.51699949,0.782241182,,,
,2.468817843,1.97647521,-6.357253216,-0.339380428,0.489274006,0.794530377,,,
,2.895556809,-1.032011581,-4.781447392,-0.359932518,0.459951682,0.81359735,,,
,5.077036318,-2.335261381,-2.242384923,-0.389918043,0.424518756,0.824316922,,,
,7.203569175,-3.614217772,-2.171051677,-0.375700204,0.443796432,0.814702548,,,
,8.519710526,-3.928714305,-2.208580413,-0.334719164,0.459893068,0.80913578,,,
,7.727023417,-3.117348772,-3.963091773,-0.300073394,0.474417941,0.816147604,,,
,5.413247953,1.392688513,-6.633418873,-0.309544546,0.475187258,0.824138328,,,
,5.903126867,3.534519342,-8.203151344,-0.328438328,0.470632008,0.819896126,,,
,9.174658582,6.472016662,-8.394003586,-0.360022018,0.422844444,0.835291845,,,
,16.04001077,10.16427129,-6.780267956,-0.378990316,0.403545056,0.854342406,,,
,22.70746334,15.33590294,-5.055493105,-0.367981346,0.40502895,0.861090214,,,
,31.97723291,19.92340411,-5.459600238,-0.36251682,0.396468909,0.876495413,,,
,47.12703916,22.48091582,-6.521405624,-0.350066972,0.359236188,0.921223547,,,
,55.92497799,41.58195362,-6.714492401,-0.129883894,0.584959939,0.821811723,,,
,70.30472896,56.93017514,-4.802761422,-0.346065036,0.410162895,0.913458716,,,
,83.03447606,80.36724294,-4.806829422,-0.402788583,0.356375637,0.903764118,,,
,106.5860208,94.85081386,-4.831409312,-0.40899052,0.385040163,0.87597788,,,
,128.369647,114.5681251,-7.095280152,-0.344009888,0.575710499,0.786254536,,,
,156.8794539,133.566718,-16.49390794,-0.27985158,0.490171764,0.916769725,,,
,164.2553688,160.3335873,-30.85160003,-0.112756983,0.505271967,0.871014169,,,
,194.867186,189.5673264,-43.92982007,-0.174322222,0.529143527,0.929986544,,,
,224.4918542,227.9560143,-57.176547,-0.051333843,0.431121101,0.849258206,,,
,271.4846494,289.1119251,-79.92938859,0.075606218,0.397820795,0.784112844,,,
,336.6288048,369.3316887,-110.0939549,0.166342304,0.443243527,0.735493578,,,
,410.6843446,448.4831725,-127.5224716,-0.458654128,0.90206208,1.06001631,,,
,378.4638338,412.5709228,-126.3589089,-0.569671152,1.12964577,0.531302141,,,
,383.8547364,385.814825,-100.2669266,-2.077870744,1.886426707,1.087976656,,,
,389.7166676,342.1633479,-87.20612448,-1.661786544,1.514215902,0.870993272,,,
,357.5948202,234.4625231,-85.99128206,-1.666627421,1.921666667,1.636789501,,,
,352.7606034,191.5887215,-106.7647264,-0.995171458,1.75474159,1.999711927,,,
,287.5803516,91.50262039,-95.10343095,-0.966330173,1.897880836,1.86174791,,,
,207.0703276,26.66809139,-84.64500313,0.011107951,1.165924159,1.887779715,,,
,-21.1766347,-157.6497384,-11.42449196,-1.308333639,3.380154434,3.007341692,,,
,-153.0253387,-215.1573977,42.3478263,0.219666972,1.454356167,1.737452192,,,
,-218.1935011,-205.1231305,51.58545294,0.535646381,0.596552497,1.101267584,,,
,-216.6049756,-201.272052,58.55697421,0.334323445,0.022847095,0.808573496,,,
,-183.9554913,-197.0385815,63.71267764,0.240070948,-0.17681366,0.649425178,,,
,-154.5869925,-202.6937322,64.76462815,0.046408767,-0.038994903,0.665770031,,,
,-144.9208507,-218.2153308,59.10306029,-0.12680316,0.266674006,0.745717941,,,
,-159.9456376,-238.5878192,55.32108047,-0.252814373,0.53437686,0.833065953,,,
,-187.1366103,-257.5410339,58.16593052,-0.38827105,0.723534047,0.893269215,,,
,-217.8023428,-278.8758049,65.97815276,-0.514254944,0.833342813,0.919676249,,,
,-241.7911116,-300.4789494,77.46910782,-0.605518247,0.816799286,0.87974893,,,
,-250.1560663,-319.2656625,86.41389573,-0.655838532,0.75697686,0.829475637,,,
,-246.0678978,-334.0840127,91.6518759,-0.707683588,0.68336371,0.755890316,,,
,-220.7421319,-343.0067417,89.39367734,-0.616958104,0.496879205,0.636858002,,,
,-169.0920493,-327.5279431,80.29493566,-0.600305301,0.449998165,0.578864526,,,
,-121.6886153,-293.5607132,70.54021461,-0.69557421,0.763102854,0.670264424,,,
,-94.54857862,-267.5865883,64.89652303,-1.054554536,1.284817941,1.080569929,,,
,-98.99106418,-277.8317039,74.6578331,-1.522696534,2.015309276,1.442469215,,,
,-129.1456038,-281.7686688,106.5881981,-1.615177472,2.351355963,1.381494801,,,
,-159.6190516,-277.4684487,157.0872084,-1.912102548,2.408813354,1.111648828,,,
,-191.6263648,-270.5824127,197.173513,-2.01307737,2.253965647,0.533763099,,,
,-216.0237099,-237.0972695,210.8716161,-1.954913558,2.112585831,-0.060161774,,,
,-229.7769315,-180.3205324,199.8116399,-1.980511111,2.050406218,-0.522985933,,,
,-216.1306238,-132.3789192,183.7680768,-2.328583996,1.73289052,-0.92920897,,,
,-161.494056,-107.4695217,185.7136696,-3.018150051,1.278928135,-1.492706422,,,
,-60.61526779,-107.0188331,189.8483049,-3.415943935,1.012613761,-2.138666565,,,
,14.69728418,-42.1469473,130.3511643,-2.181579307,0.843676758,-2.297729867,,,
,51.33925298,114.8970601,45.68507627,-0.78336371,0.963623445,-2.083737819,,,
,22.95813237,293.6143421,-38.99315841,-0.971464322,0.986405607,-1.235229256,,,
,28.32726257,286.545418,-49.82710277,-1.421773904,0.963570336,1.061106932,,,
,-3.506616298,200.0890661,-20.43969638,-0.776183384,0.365173496,2.126476758,,,
,22.04208745,212.7033049,-2.542672103,-0.169748522,-0.412465138,1.276281142,,,
,105.5917099,252.3775382,-15.24445887,-1.474292864,-0.535841284,1.078802548,,,
,125.4079709,168.112005,-33.43483754,-2.699843221,0.213814985,1.663221407,,,
,112.3225889,101.3222576,-55.76294552,-1.228668807,0.338059837,1.097455556,,,
,129.1291026,132.635547,-29.58146719,-0.267010601,1.939552396,0.700108053,,,
,0.700612792,98.38642182,-24.88985958,-0.335702854,1.711880632,0.98883894,,,
,-31.7113232,71.37329524,-31.15687194,-2.115798573,0.645708767,1.62432212,,,
,-15.38019257,21.38685291,-15.37240035,-0.599544954,0.65298736,0.950028746,,,
,-21.18454152,16.89715563,-14.11630497,-0.385202141,0.60322528,0.88519052,,,
,-8.779890661,5.883646302,-6.782960858,-0.527147706,0.424648726,0.898182467,,,
,-2.777355616,2.456843026,-4.420197502,-0.304813456,0.535272987,0.841249235,,,
,-0.246371852,7.328072904,-6.35461761,-0.303249235,0.517533435,0.839624159,,,
,1.210029568,5.294989464,-4.753257868,-0.44510999,0.416888991,0.845770744,,,
,4.595923658,2.197063961,-2.215570498,-0.378970336,0.41975209,0.852041692,,,
,6.451046407,4.96175721,-1.500060803,-0.364768909,0.436695005,0.847864424,,,
,6.878587514,4.846535397,-0.310772308,-0.385215189,0.436799083,0.836670948,,,
,8.433938744,4.228142049,1.298608843,-0.391556371,0.413647604,0.844543425,,,
,11.5610278,3.702567864,2.777183729,-0.397867788,0.405946687,0.846226911,,,
,13.33501972,4.556504162,2.603577517,-0.375732416,0.439898369,0.825578186,,,
,13.18501937,3.73316381,0.794405983,-0.301589399,0.495307951,0.800676555,,,
,8.629088169,4.787234266,-3.628541717,-0.309386137,0.515474516,0.777574006,,,
,5.545142837,2.614349123,-5.179080102,-0.353551376,0.469292966,0.786263812,,,
,5.537866273,1.987934366,-5.648389832,-0.359922834,0.44455739,0.805016412,,,
,5.662828368,2.472599365,-4.769701757,-0.371796534,0.422935168,0.820791335,,,
,6.673755102,1.806249449,-4.710228738,-0.337113863,0.446757594,0.81693792,,,
,7.770911984,2.780449588,-5.973772564,-0.314253517,0.460586952,0.813334557,,,
,7.256109405,3.957190308,-9.15907413,-0.300827625,0.48448318,0.806856575,,,
,6.497341397,4.36307361,-9.371756063,-0.341056779,0.450613863,0.820144648,,,
,8.075209869,4.558108443,-9.451912859,-0.344250357,0.443627727,0.834195719,,,
,11.17009869,7.10834359,-10.62418451,-0.355325076,0.430493782,0.848414271,,,
,16.23882713,10.43172798,-9.704472655,-0.389992457,0.419790112,0.85073843,,,
,22.18876464,12.13398559,-10.01988592,-0.404156677,0.419849134,0.846397452,,,
,29.48377788,11.19914766,-11.31855206,-0.385331397,0.395031295,0.866907543,,,
,39.43754448,13.68544071,-12.03583792,-0.334837819,0.456641998,0.852662385,,,
,43.31543742,31.17354501,-6.241286558,-0.481548522,0.341196024,0.900866055,,,
,52.31167695,43.73054535,-3.868267258,-0.339748624,0.384743527,0.899273089,,,
,69.09086057,58.53342565,-2.546281737,-0.379204179,0.353933639,0.918768196,,,
,84.47953292,75.14278458,-2.308217773,-0.407520387,0.341742813,0.901511417,,,
,102.6419513,96.84951983,-3.269526362,-0.36857686,0.509310194,0.82244159,,,
,128.0525722,121.1513528,-6.394610064,-0.396638532,0.359223649,0.96115158,,,
,140.6123227,138.2255524,-17.45922723,-0.212015698,0.460075637,0.866970031,,,
,165.2031556,162.8053845,-30.04516193,-0.186035576,0.474622834,0.874956779,,,
,191.6343862,195.1160216,-49.23391956,-0.094626809,0.511404689,0.866726198,,,
,218.6973029,237.7513581,-65.65844231,-0.12396055,0.469612232,0.926389908,,,
,266.4989998,302.5370138,-91.00403252,0.163256575,0.434100204,0.708339653,,,
,327.2250776,395.3036937,-124.667824,0.125502956,0.545221305,0.725741692,,,
,350.414685,447.2277074,-151.1519386,-0.770041182,1.187607034,1.266669827,,,
,357.8587818,419.0843643,-135.9368152,-0.806354434,1.11588787,0.684363201,,,
,365.8408861,433.3196153,-129.1974564,-2.013041794,1.995987971,1.02919103,,,
,393.5616155,393.0104874,-94.48543867,-1.718566055,1.297022732,0.829887156,,,
,375.705042,289.1489955,-100.6020496,-1.644763099,1.826573598,1.67652579,,,
,382.2087433,224.1017273,-93.93952448,-1.441045668,1.805207951,2.062056881,,,
,299.5694362,77.41175474,-80.96890592,-1.325447197,2.118528542,1.930998675,,,
,193.9271915,18.65126592,-51.1027933,0.267663609,1.476134964,2.056658614,,,
,-47.32247506,-165.4978278,37.11895617,-1.148216106,3.692040265,3.015184302,,,
,-182.4561753,-203.5516219,90.51845078,0.314084709,1.500171865,1.785138022,,,
,-237.6607735,-200.3138947,94.60300961,0.360394903,0.487084709,1.222424975,,,
,-220.4974789,-220.5138655,97.8042394,0.069148726,-0.080392559,0.985428746,,,
,-175.597584,-240.4008868,101.6083927,-0.029747197,-0.249106014,0.805459021,,,
,-142.8287526,-256.8576098,98.09461441,-0.105035678,-0.066612538,0.745346687,,,
,-141.3651892,-265.637787,82.28968823,-0.183539348,0.263715392,0.757110907,,,
,-165.6964723,-269.8148785,65.85244582,-0.300083588,0.501367584,0.828637819,,,
,-195.362107,-281.7886651,61.6754116,-0.530187462,0.645151988,0.927444343,,,
,-220.1099303,-305.5267076,68.1591166,-0.686178084,0.684829256,0.961394088,,,
,-232.1357415,-328.6417731,78.35879668,-0.730171356,0.653531091,0.910255046,,,
,-234.9948582,-345.3442377,87.90914369,-0.734749439,0.632183996,0.8481316,,,
,-229.0288778,-354.1313476,94.34191274,-0.679425688,0.536767686,0.744076555,,,
,-199.1706147,-345.853769,90.53552493,-0.605313354,0.419562691,0.675307441,,,
,-156.0813237,-321.8313676,83.15021354,-0.706160041,0.515337003,0.721324363,,,
,-121.5613041,-290.305167,72.22047064,-0.792215392,0.826534149,0.901125586,,,
,-95.47860371,-272.0448875,68.82581029,-1.241100917,1.39764577,1.374208869,,,
,-102.542715,-282.8696645,80.90066664,-1.622978389,2.014462385,1.541142304,,,
,-112.3779939,-286.0023113,117.5350151,-1.834045158,2.137939857,1.286569317,,,
,-121.8261252,-290.1673707,163.0739298,-2.116186544,2.305620285,0.823825382,,,
,-160.861969,-271.8919078,193.3515408,-2.156858002,2.50562212,0.190846483,,,
,-212.3537433,-220.1205873,202.4510846,-2.064793884,2.455099694,-0.387349541,,,
,-233.3097893,-157.3123809,196.2036674,-2.222443731,1.992713965,-0.778764424,,,
,-202.3083608,-115.1636574,190.7360457,-2.60276473,1.560563812,-1.23733476,,,
,-139.2505166,-90.81948281,192.1760032,-3.193941488,1.218708359,-1.744556575,,,
,-58.65987743,-71.18610993,182.052813,-3.087481244,0.981663303,-2.169535474,,,
,-2.684020791,8.647823889,119.8464414,-2.130493884,0.778302548,-1.983428338,,,
,16.68779685,183.386315,37.1388951,-1.444676045,0.982936086,-1.571134659,,,
,-22.71290644,246.6108326,-80.12717362,-0.871854638,0.006808155,-0.5087316,,,
,-7.136189338,218.623907,-112.5335519,-1.225625688,0.735483996,1.856833843,,,
,1.019005439,172.8694455,-97.0101199,-0.242373191,0.005896024,2.066186442,,,
,43.05932529,241.3962864,-78.59273535,-0.250328033,-0.52280632,0.743102243,,,
,127.9498981,239.1921751,-25.16075402,-1.802387054,0.75987054,1.377206626,,,
,122.7250387,177.2395092,12.16962357,-1.520133843,0.770256167,1.263520999,,,
,128.4066028,152.0451225,-10.34274764,-0.939936901,0.146064526,0.851858104,,,
,73.09056435,155.5952836,-23.45139174,-1.575229664,2.091712946,1.675459531,,,
,8.707296908,103.3151194,-29.86026845,-0.556450561,1.071229154,0.871355046,,,
,-35.24870733,32.46184062,-22.9441522,-1.072537717,0.490413863,1.072429052,,,
,-22.07692328,19.36362435,-13.88546028,-0.547553619,0.716023751,0.965290622,,,
,-14.78804069,11.43675325,-9.28220276,-0.635972783,0.450963201,0.960569113,,,
,-3.835207593,3.755852939,-2.361560144,-0.454622834,0.48308318,0.890424669,,,
,-3.14886145,3.267979376,-2.927527854,-0.317460958,0.529851172,0.857073394,,,
,-3.191432215,4.665709917,-5.642087296,-0.356032824,0.495324261,0.83922946,,,
,-1.592879966,3.396321922,-7.020623751,-0.372607136,0.444475739,0.836398471,,,
,-0.771430375,2.898364302,-6.45018697,-0.339543323,0.441276249,0.840302345,,,
,0.890089935,4.515022017,-5.027819244,-0.336378389,0.424339042,0.829314475,,,
,4.384960598,5.522224525,-3.276516447,-0.319062997,0.422731091,0.83280316,,,
,6.274460814,6.219170387,-0.313637097,-0.333227625,0.415085627,0.826115291,,,
,9.569140024,5.667870397,1.938946475,-0.358431702,0.394356473,0.820430683,,,
,11.4102826,4.92239501,2.83241686,-0.331652599,0.41970316,0.827643017,,,
,11.15657689,4.29655321,0.716999385,-0.295339959,0.46902263,0.811365138,,,
,7.611056759,3.373346315,-3.294564618,-0.290488277,0.520035678,0.780261366,,,
,3.773041672,0.536976046,-6.607693068,-0.309383282,0.513937819,0.77601631,,,
,0.277025094,0.731380625,-8.968164593,-0.323625892,0.504640163,0.79808787,,,
,-0.724275949,0.693565411,-8.625535831,-0.341075229,0.445965138,0.825577268,,,
,0.112528911,2.330276649,-8.244576193,-0.34985474,0.399600408,0.854447706,,,
,2.293664645,1.789977448,-5.69932578,-0.355375127,0.391131804,0.854556983,,,
,5.351368511,3.467425985,-5.386318936,-0.318287971,0.439659837,0.842923853,,,
,5.809333676,3.343036847,-7.794231366,-0.328465545,0.477526809,0.832347503,,,
,5.165501002,4.811241197,-9.897903207,-0.348904587,0.483804485,0.820388583,,,
,6.481126691,5.298599098,-10.54431419,-0.383585525,0.45228053,0.821117533,,,
,7.418428348,4.372527414,-9.149505735,-0.40405474,0.440025382,0.814564322,,,
,10.70646125,5.367296737,-7.712814063,-0.360014475,0.424396024,0.832962793,,,
,14.68685635,9.208520388,-8.094174772,-0.338027523,0.410370744,0.852644546,,,
,19.80165058,14.58773465,-8.136573649,-0.360155352,0.394919368,0.876438532,,,
,30.3849832,19.95990153,-9.339785018,-0.357107951,0.380895821,0.910543935,,,
,48.92767362,23.27566558,-13.43288092,-0.290983588,0.414553313,0.932422018,,,
,56.07933282,54.21515734,-10.26929445,-0.41568369,0.283574924,0.990976147,,,
,72.44489821,68.85726568,-10.75367297,-0.331984404,0.365300917,0.934814985,,,
,92.82300163,87.11708683,-10.94956724,-0.393478287,0.30992263,0.941549949,,,
,97.71365478,113.9641702,-22.87528267,-0.231279817,0.292436086,0.949477676,,,
,129.8324083,136.720335,-26.25602014,-0.281610703,0.434444546,0.968004281,,,
,157.8259802,168.7365863,-38.13177366,-0.146116922,0.398650968,0.943079918,,,
,189.6245649,201.1735033,-55.95964193,-0.083101427,0.417739144,0.944789908,,,
,216.4282754,246.328479,-79.87146256,-0.004143425,0.524879918,0.902778593,,,
,248.2625553,293.7195944,-108.0348592,0.134477166,0.432033435,0.868343425,,,
,304.3648065,392.8444442,-152.4669341,0.221701835,0.53123476,0.676881549,,,
,344.1674969,481.7545452,-188.9362707,-0.25612263,0.69209368,0.943053007,,,
,352.5800071,453.9401371,-166.8322465,-1.484766667,1.529252294,1.238548522,,,
,329.5298004,476.7481546,-168.5898518,-2.016234557,2.092237207,1.076091641,,,
,364.3690148,405.799994,-120.3049223,-2.093405097,1.4846316,0.877666463,,,
,348.3802837,296.8965881,-118.8733299,-1.803982161,1.521007136,1.6290316,,,
,335.7131036,218.5992125,-99.73951895,-1.402550968,2.145061876,1.911043323,,,
,256.0540365,92.74026652,-75.8199061,-0.755654434,1.578518552,1.904513863,,,
,185.9487542,24.60017212,-17.55261935,-0.910540979,2.303949949,2.335439348,,,
,-55.48706635,-153.1444567,68.06383372,-0.563131702,2.807669113,2.459095515,,,
,-157.7618089,-169.8520206,106.6116893,0.613923038,1.248937615,1.490199898,,,
,-203.0015251,-154.0465787,109.558354,0.513533435,0.347689704,1.044539857,,,
,-182.9395798,-159.0342336,111.2675444,0.296183078,-0.182450255,0.869672579,,,
,-143.6012716,-173.2207832,109.2902097,0.124629664,-0.258788175,0.795701835,,,
,-114.2657179,-194.7528809,102.5074208,-0.0279842,-0.067026809,0.793338022,,,
,-112.2618553,-212.6360969,90.44803427,-0.155439042,0.267893884,0.852866769,,,
,-137.9101391,-231.3765724,83.6598595,-0.339688889,0.572037309,0.936949949,,,
,-172.6737804,-253.4658143,84.62672578,-0.488534353,0.725024873,0.985727829,,,
,-207.6074182,-276.8397994,93.39320923,-0.627769521,0.81195739,0.953315392,,,
,-232.3381674,-298.2262512,103.6368352,-0.659040979,0.778482977,0.856019776,,,
,-244.1649331,-310.6604094,113.4563577,-0.684124975,0.730961162,0.796644546,,,
,-247.3709757,-317.3550775,120.4614543,-0.734508767,0.745006932,0.793934149,,,
,-250.3018267,-322.7071908,123.2051773,-0.718589195,0.703598675,0.717312232,,,
,-222.4979038,-308.2507208,116.4263991,-0.623989806,0.466164526,0.60586524,,,
,-173.6298751,-273.67352,101.9417395,-0.723423038,0.429963914,0.670247299,,,
,-121.516728,-243.830383,71.45282179,-0.922608257,0.798549745,1.060286035,,,
,-106.2370895,-244.4840133,45.78563037,-1.494934455,1.670011111,1.553095311,,,
,-128.7180054,-249.3668169,40.96482077,-1.629793986,2.242912436,1.512206422,,,
,-138.4159463,-256.55526,77.7367937,-1.999142813,2.385375127,1.258169929,,,
,-138.0718851,-283.0557612,133.0567283,-2.399447095,2.383876351,0.752703976,,,
,-156.5777344,-293.5769279,173.502392,-2.315549541,2.370298063,-0.000131804,,,
,-188.554337,-243.1015807,177.8049039,-2.068168196,2.231728033,-0.670656371,,,
,-195.4870691,-177.7759696,176.4143354,-2.426362487,1.781900102,-1.163190724,,,
,-158.9027398,-137.4108064,184.9756999,-3.211058002,1.342324363,-1.783567992,,,
,-81.90414493,-124.8935694,173.0498699,-3.087755148,1.074848012,-2.332585117,,,
,-9.553383684,-38.54052175,114.8002876,-1.983464016,0.71392946,-2.209221611,,,
,37.92293054,68.86093261,59.90187804,-1.046971967,0.828067074,-1.322432824,,,
,-3.661544086,252.1747685,5.824402466,-1.229806014,1.41240581,-1.088586952,,,
,-34.93885176,271.4293589,-53.58037739,-1.19007054,0.498913761,0.554317227,,,
,-56.186877,186.3010659,-44.76072346,-0.376210194,0.159673496,2.098299796,,,
,-10.52615143,190.8874212,-23.01794917,-0.227379307,-0.56461896,1.575790214,,,
,65.18174142,230.9235919,-49.23277365,-1.066867074,-0.867958512,0.872977676,,,
,119.2806456,182.958602,-47.40165783,-2.323716208,0.425217941,1.555562283,,,
,127.6713261,123.3066482,-9.289422028,-0.892344241,0.937614577,0.978249134,,,
,120.9665739,138.78453,0.842591734,-0.337920489,1.09577054,0.736607441,,,
,19.14280641,110.7889527,-24.29180623,-1.665667278,1.104924567,1.605630581,,,
,28.35058196,87.18194566,-23.21624986,-1.134006116,0.825667482,1.194972171,,,
,-20.99580922,35.56509463,-20.18180808,-0.523845566,0.608212844,0.900021101,,,
,-24.22998409,22.76624881,-16.05536604,-0.538934251,0.625027625,0.952478797,,,
,-16.0572568,11.73285784,-11.25260462,-0.54759684,0.514115902,0.916702243,,,
,-7.268084223,6.673067553,-7.119229788,-0.402631702,0.504517533,0.892390622,,,
,-5.910575319,8.726032628,-7.91174501,-0.306421101,0.53369052,0.85294261,,,
,-5.676120989,8.236325601,-9.043909613,-0.353684404,0.47834791,0.839142712,,,
,0.168736071,5.300547154,-6.261970335,-0.429421814,0.39055841,0.860908053,,,
,2.872581202,3.926823545,-2.483714746,-0.384492457,0.404347197,0.850582773,,,
,4.725755894,4.267217771,-1.067649555,-0.347417533,0.433597655,0.837357594,,,
,6.000472397,5.536204695,-1.040720539,-0.331621814,0.441318451,0.823020693,,,
,6.397131078,5.598886278,1.02169834,-0.342661264,0.425923751,0.823242202,,,
,7.725533726,5.959219436,1.300442308,-0.342661672,0.435167992,0.826369623,,,
,10.3473313,5.111413786,0.559206808,-0.325301223,0.459818145,0.821358104,,,
,6.731509248,4.437271644,-1.910298585,-0.303151376,0.508428338,0.79996055,,,
,3.802377112,5.277514251,-6.417642967,-0.301541692,0.50770265,0.786707849,,,
,1.741333331,5.284790815,-8.142876184,-0.334668807,0.475373191,0.795173089,,,
,0.844310607,4.90297174,-7.388577247,-0.345775841,0.443703364,0.815574822,,,
,3.716548034,4.420369389,-6.171500299,-0.35687472,0.416667584,0.834430683,,,
,5.273847321,4.61884197,-4.554269626,-0.372621814,0.402853007,0.828544139,,,
,8.948626732,4.885210049,-3.729840655,-0.362363303,0.421341284,0.826791743,,,
,9.235392108,4.254268925,-4.295521886,-0.337118451,0.458306932,0.822401937,,,
,9.412837137,3.707151526,-5.479768353,-0.328454842,0.470608359,0.826115087,,,
,10.19824768,4.821153367,-7.259833631,-0.3300316,0.473692457,0.827711723,,,
,11.22962901,6.805077029,-7.282121689,-0.364734964,0.43520265,0.834646177,,,
,14.3915539,8.618717633,-7.484891452,-0.35693629,0.402712334,0.853060652,,,
,21.45010746,13.41328576,-6.475569001,-0.37268685,0.404300917,0.853422834,,,
,27.75688309,19.02724083,-5.31825155,-0.37590632,0.391114475,0.875235576,,,
,41.24316367,21.81382106,-5.935498983,-0.432786035,0.324007339,0.919931193,,,
,47.48170003,46.09582972,-1.863144158,-0.290953211,0.386861978,0.912156677,,,
,66.80418601,53.55499536,-0.711384398,-0.344448624,0.414839551,0.899439144,,,
,78.19269622,74.24897042,1.142707027,-0.395031295,0.30687737,0.932251478,,,
,100.6007318,91.75569585,-3.346016228,-0.369653415,0.393339144,0.893753109,,,
,101.8664529,121.7656209,-13.8566978,-0.180566157,0.405978084,0.869256473,,,
,142.9207124,129.7017166,-22.6346404,-0.212217227,0.485981651,0.950976555,,,
,160.1825556,164.6522567,-38.23043699,-0.127073802,0.457348012,0.90855841,,,
,189.5870935,194.9176636,-55.84837353,-0.105025178,0.469604587,0.913520999,,,
,215.2290747,243.6029761,-72.85599543,-0.108133945,0.540550459,0.920726606,,,
,256.0756943,292.9249592,-96.77268619,0.144307339,0.449496228,0.731344241,,,
,311.2820686,393.5961649,-133.9558136,0.160198777,0.494333129,0.692980734,,,
,357.3691321,470.6302258,-160.5722815,-0.565184913,0.962169521,1.15895107,,,
,351.4511656,425.3579083,-131.7855641,-1.118932824,1.22828787,0.987093272,,,
,360.0313805,458.1289743,-129.5377361,-2.095369827,2.112730683,1.225627829,,,
,376.4019306,413.2431168,-93.21066487,-1.882296636,1.382371254,0.8275684,,,
,348.0755848,314.5183634,-101.279343,-1.988093476,1.771420082,1.643824465,,,
,320.4445805,244.8712754,-107.5446938,-1.104782161,1.960151784,1.823050765,,,
,257.044967,137.6842219,-86.46105016,-0.757233843,1.624741488,1.92096422,,,
,231.0192759,86.83547808,-60.26788348,-0.79376422,1.579733435,2.020429256,,,
,28.3486912,-122.2964663,30.29846657,-0.998054434,2.834527829,2.837516106,,,
,-98.14050833,-183.7296313,86.91849966,0.131269011,1.687007747,1.884505403,,,
,-185.186663,-187.5888458,103.4729692,0.263581753,0.817187258,1.307674822,,,
,-204.7774651,-196.3154514,106.7512046,0.193795107,0.167610703,0.984627013,,,
,-184.7096756,-204.6155472,105.2511438,0.075862793,-0.205396738,0.789922222,,,
,-148.6497747,-218.6759315,102.0992456,-0.067317125,-0.240956983,0.720825688,,,
,-125.9939921,-230.4572616,88.81951633,-0.190068298,-0.029346279,0.748912946,,,
,-129.1141484,-248.1511723,74.01898516,-0.36493843,0.293157594,0.865465851,,,
,-155.7210479,-271.0619784,65.64394648,-0.580814577,0.58951366,0.993785015,,,
,-191.5572088,-300.0545023,65.61415267,-0.702835168,0.719377778,1.0170316,,,
,-221.4230923,-323.5941295,68.25978529,-0.705769011,0.667308563,0.919053619,,,
,-230.099163,-336.8259595,75.794123,-0.664590724,0.555029154,0.79818685,,,
,-222.6936262,-341.9156582,81.56736033,-0.718940265,0.541312232,0.797067176,,,
,-217.0255839,-348.3674495,87.42063987,-0.824473496,0.646400815,0.831549235,,,
,-204.9158344,-351.4873193,91.77311376,-0.775552599,0.593999694,0.779805097,,,
,-172.7114237,-328.2279257,86.83776991,-0.750397554,0.569204893,0.789288379,,,
,-135.3657482,-286.2328695,77.2535038,-0.804157594,0.792487564,0.938642915,,,
,-104.7023648,-260.5856743,72.4531488,-1.36481896,1.495753313,1.433188991,,,
,-124.1231703,-273.659769,85.44147176,-1.931543221,2.207437717,1.545445566,,,
,-150.1864475,-281.1153823,123.4173436,-2.162769317,2.339903466,1.174750968,,,
,-182.4419087,-278.803956,158.5498551,-2.266533435,2.47371213,0.553963507,,,
,-226.7986396,-245.0722117,179.4354272,-2.200188889,2.374346483,-0.141117941,,,
,-253.7898792,-187.1678938,180.475804,-2.146916514,2.144917329,-0.700901223,,,
,-232.4435344,-130.4987582,171.3715619,-2.334331804,1.679770234,-1.15382895,,,
,-172.9407787,-97.01499004,169.9536633,-2.942253823,1.339209684,-1.582933843,,,
,-92.51136988,-88.765601,170.3745581,-3.39076524,1.103413558,-2.100973904,,,
,-33.32236593,-39.00456027,121.8736807,-2.469904791,0.926854842,-2.239690112,,,
,15.22600963,104.0442655,31.45721642,-1.4201263,0.762307136,-1.988772681,,,
,24.71671173,212.4277695,-60.40504958,-1.472444343,0.674978797,-1.297485729,,,
,45.67820078,193.2524764,-117.9249129,-1.211323344,0.479019776,1.135424975,,,
,43.65222202,130.4856947,-98.88151465,-0.190428135,0.501834149,2.237761876,,,
,30.87967496,219.5474003,-69.04324778,0.148451376,0.074234964,0.829235576,,,
,126.8430583,245.033709,-12.82795208,-1.201685423,0.786650765,1.163791131,,,
,113.4324654,181.0312293,28.76368453,-2.048120591,0.711274006,1.368722018,,,
,124.5088282,115.7316877,-8.54463419,-1.481045872,-0.019170133,1.118834149,,,
,84.56404419,100.4116557,-12.80789855,-1.38268104,2.414489908,1.633612436,,,
,19.08923486,73.19363945,-12.74235218,0.265049847,0.826573802,0.4634842,,,
,-8.257983405,56.5696701,-16.18777659,-1.23655158,0.771040775,1.239178695,,,
,-8.291959803,24.15807788,-12.11393207,-0.577520489,0.724530581,0.983091641,,,
,-12.07244993,18.35487485,-7.444497928,-0.612422324,0.464651274,0.993483894,,,
,0.700383609,2.204455117,0.569863823,-0.547747197,0.419911723,0.942950357,,,
,5.314527325,0.850040185,3.853083876,-0.363283384,0.465067278,0.890639042,,,
,8.435313843,0.198014214,2.914865487,-0.320623038,0.513665138,0.856336493,,,
,7.582752644,0.600001403,0.900403175,-0.326839246,0.493773598,0.818350357,,,
,7.044000429,-1.116179081,-0.305100026,-0.320540061,0.467559225,0.810382161,,,
,7.062678853,2.13707528,-0.43659384,-0.31588787,0.439706218,0.82887737,,,
,6.612047547,5.032288315,-0.728630428,-0.306408359,0.453586442,0.822469827,,,
,5.232365177,6.038917865,-1.355790031,-0.326859225,0.44598002,0.810483996,,,
,5.451578829,3.381195836,0.014610424,-0.339508257,0.428999898,0.823176351,,,
,7.705480204,4.207286385,0.718890146,-0.315892355,0.431995719,0.828085117,,,
,7.202079485,5.13593638,1.080426514,-0.287461672,0.476707136,0.81275525,,,
,5.20394647,4.390289105,-1.981975605,-0.307862283,0.518478389,0.797755556,,,
,-0.570952443,2.010967269,-5.524802835,-0.303085627,0.520078287,0.778993986,,,
,-3.894451429,-0.017761692,-8.828993144,-0.273210398,0.506047808,0.793831906,,,
,-6.371405273,2.042021582,-11.57575281,-0.25281631,0.485838532,0.818201835,,,
,-7.996657355,5.221020612,-12.75661883,-0.289146177,0.450361876,0.845389704,,,
,-5.423045531,5.613210223,-11.43090908,-0.344319062,0.42118787,0.852809174,,,
,-0.895418442,6.089739221,-8.740528461,-0.374253109,0.419726402,0.855043425,,,
,2.871263399,5.98712248,-8.227731234,-0.33169052,0.448154027,0.851019368,,,
,3.87285092,6.21939957,-8.878897768,-0.330842508,0.470579715,0.83549735,,,
,4.651844339,7.021826962,-10.8672332,-0.331611417,0.470608665,0.828519062,,,
,5.775128096,8.137203902,-10.89507895,-0.328457492,0.467523038,0.826109174,,,
,7.706396936,12.16469613,-12.2261745,-0.352136493,0.441324873,0.837480224,,,
,11.86251819,14.79892689,-13.74657531,-0.326991845,0.416515189,0.850850255,,,
,18.71967708,19.33314299,-12.84823478,-0.330230683,0.387893068,0.87496524,,,
,29.06110692,25.56434549,-11.06444528,-0.358704383,0.360839653,0.912095719,,,
,52.32067239,28.04702892,-13.5606505,-0.338440265,0.297302243,0.971363405,,,
,57.08229544,61.3727753,-7.527404921,-0.398372885,0.28889419,0.998365138,,,
,76.53971298,72.25318653,-7.53324909,-0.349324669,0.366873394,0.94065474,,,
,96.27226485,91.65502716,-7.162831876,-0.423384608,0.306960041,0.932898063,,,
,109.2714167,117.9611811,-14.13372289,-0.230410601,0.529835168,0.995007339,,,
,144.4051887,133.2115987,-17.95535138,-0.324844241,0.423905097,0.933989602,,,
,155.2767764,162.6512016,-31.01265846,-0.131790622,0.433491641,0.897736697,,,
,186.3859782,190.2960714,-49.13949612,-0.1003158,0.489598267,0.925889908,,,
,210.3623139,233.3377496,-69.24733534,-0.067191539,0.59896422,0.943227319,,,
,244.6495408,275.5580355,-94.6451793,0.145686544,0.491583996,0.818455657,,,
,289.9240928,362.2602436,-136.6024203,0.259389093,0.554069521,0.72737054,,,
,349.0504725,455.8390339,-181.2572038,-0.139457696,0.742745362,0.918727217,,,
,370.3487461,461.4067512,-166.4453281,-1.412911825,1.391047197,1.419311315,,,
,355.4233101,481.1050975,-167.1922932,-1.851305097,2.002494801,1.218293068,,,
,362.5070738,412.3184775,-113.3128891,-1.909198777,1.299838838,0.848230683,,,
,359.2187544,304.4090961,-110.813418,-1.967467686,1.877888379,1.621797452,,,
,350.1682558,248.8198141,-117.9714371,-1.059194903,1.777299694,1.798333741,,,
,288.6543037,149.8107017,-105.476087,-1.136541692,1.922128236,1.90765158,,,
,178.2235069,75.28533648,-52.2036744,0.541949949,1.213690112,1.889762487,,,
,4.23221005,-99.38376945,45.92147866,-1.478419878,3.742018451,3.11453476,,,
,-154.847631,-163.2214665,114.9290312,0.214742406,1.634360652,1.87006208,,,
,-225.3853819,-163.3729565,126.6850938,0.413902039,0.623990622,1.283659021,,,
,-222.8158381,-177.4113965,124.892538,0.121805301,-0.046808563,1.03715209,,,
,-184.7402143,-200.1687072,117.1664314,-0.085959429,-0.301749337,0.899916616,,,
,-146.5848921,-232.2918725,106.409779,-0.255874006,-0.171532314,0.868288379,,,
,-138.7898012,-260.0621628,86.53438876,-0.328821611,0.155759225,0.862818858,,,
,-158.7957113,-275.0301122,65.95517715,-0.341183792,0.418075535,0.857395515,,,
,-188.8000786,-285.0854642,54.78828702,-0.448247095,0.578702243,0.892798471,,,
,-212.5969066,-300.3884794,55.79738029,-0.586053925,0.643849134,0.908504995,,,
,-226.2634397,-318.874447,63.85723489,-0.687600102,0.658088481,0.895301529,,,
,-230.4541103,-337.9622494,73.37830375,-0.75681264,0.683079817,0.868944648,,,
,-230.2648051,-350.0315481,81.66808632,-0.733827625,0.673204893,0.810879205,,,
,-213.5305413,-352.8235714,85.81578509,-0.604539042,0.496582059,0.704978899,,,
,-171.1991589,-334.5867832,82.47687354,-0.664512334,0.457299694,0.737362385,,,
,-127.501616,-308.3476653,74.5112705,-0.756814781,0.743938838,0.889274312,,,
,-97.12264881,-281.7384167,65.15973984,-1.085114067,1.24856524,1.306620082,,,
,-99.05746999,-294.0531704,73.61625312,-1.721736086,1.997359531,1.653740571,,,
,-118.6706748,-308.1847161,104.3244991,-1.89106789,2.177714781,1.419315189,,,
,-129.3115323,-312.9224468,146.033191,-2.157442813,2.296834659,0.93512895,,,
,-159.5362592,-296.323573,177.5909615,-2.142959939,2.391933231,0.258711723,,,
,-193.3728548,-244.3069693,195.1578475,-2.043925382,2.290375229,-0.291759429,,,
,-207.281348,-179.1997124,201.4817546,-2.210121101,2.00306473,-0.67097686,,,
,-188.8969658,-133.3008083,205.4453047,-2.634542712,1.695855352,-1.090208257,,,
,-144.050356,-102.6483111,210.8038352,-3.272617941,1.372366667,-1.724583588,,,
,-61.92080943,-88.8619725,197.7674411,-3.148663914,0.992984404,-2.258288175,,,
,14.55605008,-6.011587778,127.406906,-1.958604281,0.650963099,-2.101086035,,,
,55.20012908,99.59553465,49.71491763,-1.589082161,0.783069419,-1.23242895,,,
,13.13345317,237.2804441,-6.730191445,-1.370666667,1.129177268,-0.333478797,,,
,5.848180215,216.4811594,-57.31113478,-0.862259735,0.731281549,0.852787258,,,
,-52.45021814,172.6651287,-77.83362357,0.40388634,0.734150255,1.531292559,,,
,-24.34360162,220.5553477,-83.75926768,-0.268005912,-0.64107156,1.428874924,,,
,61.69414732,231.403043,-56.21930641,-0.620637615,-0.429480632,0.834124057,,,
,88.99180474,214.6088479,-37.90511156,-2.087266565,0.695187258,1.572465036,,,
,115.2270265,142.5819797,0.973970956,-1.346100917,0.547836595,1.197709174,,,
,127.0783147,135.1779326,0.836002719,-0.85140683,0.432084506,0.821638532,,,
,93.10816272,151.484999,-11.83358382,-1.316653211,1.727680428,1.460528542,,,
,45.59529379,87.03360688,-18.10707061,-0.52857686,0.477249541,0.860229052,,,
,-1.316141351,54.5075377,-11.14918574,-1.070525382,1.241408257,1.149253721,,,
,-8.219308754,28.81032329,-9.815912946,-0.583916412,0.705153007,1.01273792,,,
,-9.812933566,10.27628453,-3.256233741,-0.564169419,0.543392253,0.938902446,,,
,0.402330964,3.238185571,1.289670701,-0.431064628,0.476751886,0.913972273,,,
,3.434022545,3.272448447,1.278727207,-0.31506371,0.560709684,0.853969929,,,
,1.442765024,3.73791936,-2.088545755,-0.330809174,0.526866972,0.841048114,,,
,5.42631139,0.49984838,-1.084265332,-0.419188073,0.406700102,0.867702243,,,
,9.527314105,0.95626656,1.082718345,-0.360009888,0.444433129,0.837665851,,,
,10.16753715,2.67290541,2.389348597,-0.331623955,0.45826422,0.829272477,,,
,9.348150202,3.430985869,2.127506885,-0.309509174,0.48756422,0.814833843,,,
,10.19744554,3.68320189,3.734538909,-0.341048318,0.446003568,0.815471458,,,
,13.38721618,4.334597608,5.478737029,-0.328487258,0.439745872,0.828387462,,,
,13.88568946,5.184523201,5.031027807,-0.3095158,0.479850866,0.814818858,,,
,10.99511738,4.278275856,3.392425809,-0.280269623,0.535385321,0.792495617,,,
,5.805437563,3.327165916,-1.672062734,-0.269944139,0.56937737,0.770561672,,,
,1.068852767,2.130887336,-4.779900406,-0.309364934,0.535535372,0.776058104,,,
,-0.976606562,0.13968711,-5.184465905,-0.328340265,0.50312895,0.79352844,,,
,-0.766159164,-0.719749582,-4.832326044,-0.306371967,0.472128236,0.81473211,,,
,1.031553214,1.463105026,-4.793594097,-0.309624261,0.435012436,0.841162589,,,
,3.914734135,1.721967357,-2.743722994,-0.323743935,0.458247197,0.827538124,,,
,4.75486215,1.386328681,-3.65781986,-0.318949643,0.495311111,0.813509582,,,
,2.505028776,1.729816879,-4.353848989,-0.317348726,0.50612895,0.807275637,,,
,1.817021056,1.638831181,-5.802572774,-0.337821713,0.501572375,0.804624159,,,
,3.287001575,2.175692635,-6.396443529,-0.352053109,0.473801019,0.816554128,,,
,6.103490208,3.608201715,-5.833569791,-0.353671764,0.45910581,0.82822212,,,
,11.5650385,5.741208995,-5.33291927,-0.34110897,0.442835372,0.837231804,,,
,16.37719643,11.13108027,-4.970007802,-0.31591631,0.442747197,0.840543935,,,
,21.64187643,18.1085603,-2.734555669,-0.33799633,0.437379511,0.84958736,,,
,29.85373673,25.81879605,-1.074295866,-0.34756738,0.388700102,0.879248624,,,
,52.74804161,29.03102663,-1.408444852,-0.319397757,0.35753894,0.937622222,,,
,67.28226199,44.25497362,-6.027917075,-0.046369725,0.607100306,0.816064424,,,
,74.97124101,69.87122909,-8.910410447,-0.308314883,0.402271254,0.930461162,,,
,87.48463926,89.21147676,-12.75329567,-0.229339246,0.488636086,0.87519419,,,
,108.9804115,106.4149356,-15.76923092,-0.333456575,0.408595311,0.910058919,,,
,124.814272,127.1125776,-26.64832435,-0.276327829,0.510726402,0.783029664,,,
,162.073832,146.1439437,-35.7147512,-0.249995719,0.477654332,0.939384302,,,
,179.8251531,176.5108215,-50.9302757,-0.068824465,0.51876422,0.939220897,,,
,212.9736264,217.3586443,-62.03574476,-0.141378899,0.486481346,0.966463609,,,
,250.9064691,262.3564004,-77.89670622,0.063690214,0.423903262,0.831075127,,,
,307.3035643,341.1913823,-111.0234071,0.137779613,0.413751784,0.805269011,,,
,374.6918808,431.4707951,-140.793893,-0.025849949,0.615575739,0.802398675,,,
,387.9437643,430.5659801,-132.6430527,-1.489799694,1.501092457,1.345101733,,,
,396.6495142,429.9361276,-114.9979007,-1.812583282,1.856604485,1.417674618,,,
,370.8328954,370.6111608,-110.8381698,-1.795008053,1.473959735,0.609661162,,,
,384.0796224,281.0037702,-83.16900656,-2.059651682,2.081079001,1.40664577,,,
,352.9025823,205.2067824,-111.190768,-0.830515189,1.743133129,1.678009072,,,
,312.7907811,146.398337,-110.982326,-1.171347197,1.880411111,1.95189368,,,
,186.6676443,49.95126272,-98.61348499,0.333435678,1.031638022,2.057398369,,,
,75.60991707,-58.50512153,-52.54979821,-1.58590948,3.498344139,3.180249134,,,
,-120.1964041,-179.4666534,28.17359529,-0.3101579,1.884980836,2.098616208,,,
,-205.1395744,-206.2912769,61.60407836,0.451725994,0.949019368,1.379821305,,,
,-227.1905427,-206.1824722,70.01183293,0.314446585,0.275330173,0.960322018,,,
,-207.7723155,-206.5574731,72.92601087,0.29514261,-0.137769113,0.683225688,,,
,-174.9976972,-204.4524261,71.75769263,0.144049949,-0.153328338,0.634559123,,,
,-154.0633091,-213.5299684,63.21254278,-0.063833741,0.073064322,0.696486544,,,
,-157.2276977,-230.9824347,51.29307258,-0.246610805,0.393235678,0.824097757,,,
,-182.7483838,-254.2941393,46.72694273,-0.402613354,0.630890112,0.926062589,,,
,-212.377693,-280.8668333,51.53302731,-0.553820082,0.751529766,0.963948318,,,
,-235.5607113,-304.9522028,63.62999983,-0.593008461,0.738050357,0.888637513,,,
,-244.6617448,-318.0936774,75.68829769,-0.560482263,0.6782,0.780507849,,,
,-242.4919536,-320.8496044,83.9747571,-0.551695107,0.662943221,0.72897421,,,
,-233.0377489,-319.2480154,89.00440981,-0.579993884,0.663874108,0.709410703,,,
,-208.6210952,-311.5315917,87.80108385,-0.548495719,0.632958308,0.700858818,,,
,-173.0032311,-287.4512642,83.19541991,-0.628908461,0.789472783,0.782285729,,,
,-138.1449373,-257.0750473,79.57123267,-0.763098981,1.177719062,1.022411927,,,
,-123.7283451,-252.0120484,87.45518923,-1.29916055,1.971314475,1.476153109,,,
,-151.1579547,-258.7274576,103.7948569,-1.410484302,2.664969317,1.508032518,,,
,-179.9511465,-246.1033066,138.7380059,-1.65536208,2.605268196,1.174584709,,,
,-160.9059148,-270.3980349,199.8226407,-2.181915087,2.314130071,0.666766157,,,
,-158.0016491,-267.1876951,214.1890417,-2.139476147,2.336160652,0.115495209,,,
,-162.3850054,-240.3418722,216.1910136,-2.275660347,2.180620897,-0.253265953,,,
,-160.3368532,-207.248231,216.2633781,-2.619198165,1.677922222,-0.647517635,,,
,-124.4967961,-179.2772909,227.6269647,-3.745843629,1.242587971,-1.504170744,,,
,-67.85052154,-191.8223737,172.8699612,-3.39172263,1.276457288,-2.573227319,,,
,1.491810211,-81.55996918,51.25984103,-1.935220387,0.527223955,-2.64132528,,,
,70.34666947,52.03665721,-47.76325149,-1.279195107,0.543446789,-1.748333843,,,
,90.11560416,115.9573185,-88.90740806,-1.685505199,1.139623445,-0.397794393,,,
,-20.74061382,193.6102312,-58.61541591,-0.145965036,2.186093782,0.276520489,,,
,-137.1456416,246.3192544,-78.94774,-0.463597961,1.200681448,1.237943731,,,
,-123.1831185,171.5813791,-26.3856232,0.400026911,-0.305359531,1.464050561,,,
,-10.94945265,216.3331071,8.423911983,0.181350153,-1.151776249,1.094263201,,,
,71.37151907,255.913891,-9.512245315,-1.251501937,-0.992710194,0.964003364,,,
,95.5439782,197.3561147,-39.4426438,-2.544582773,0.190400204,1.612996228,,,
,121.7729547,117.8132434,-24.05437252,-1.554415494,0.532477064,1.343901733,,,
,121.6078283,116.6046462,-3.3884724,-0.423967686,0.917001529,0.756097859,,,
,102.395694,136.2841422,5.981507494,-0.909972783,1.559721916,1.291576249,,,
,36.39502399,72.58733552,-19.10556416,-0.829982773,0.35716371,1.033213354,,,
,16.91233901,66.12660612,-16.61629172,-0.867118654,1.495346891,1.14822263,,,
,-23.75144974,42.33510664,-25.26537612,-0.429391743,0.606314883,0.918851682,,,
,-26.93629294,20.64504446,-19.20021679,-0.571244648,0.500288787,0.920323649,,,
,-20.26259513,11.40965235,-15.27923741,-0.407317431,0.553894088,0.893371458,,,
,-13.59376746,10.94790566,-14.47807053,-0.343468807,0.514494088,0.859190928,,,
,-12.91572921,8.721162487,-15.66793198,-0.36156422,0.503018247,0.848698471,,,
,-8.54898867,8.884913825,-11.54979783,-0.429509174,0.365780734,0.885735882,,,
,-2.000252959,7.25685425,-5.813057902,-0.423109582,0.409046279,0.862354944,,,
,0.733844344,6.964359296,-3.31123769,-0.37263843,0.432104791,0.844148216,,,
,2.332052818,5.378240231,-1.657395014,-0.353732008,0.432055556,0.842162487,,,
,4.556045795,5.129863027,0.427827586,-0.361594903,0.418229867,0.832986748,,,
,6.506050355,6.46525576,1.03052189,-0.360026707,0.419756167,0.836063303,,,
,8.633270761,4.839831791,1.409533472,-0.342615494,0.467590928,0.819436086,,,
,5.914987094,5.094626123,-2.172885142,-0.302340061,0.516934455,0.793740061,,,
,4.035972005,5.072567248,-4.821497142,-0.3188737,0.496960347,0.785527319,,,
,3.0518024,4.077511445,-5.871614189,-0.352031702,0.45996422,0.804089399,,,
,2.909823458,2.922772305,-5.369817752,-0.378892661,0.413699694,0.820935066,,,
,5.122643759,3.180431425,-1.68867851,-0.39710265,0.36970316,0.843029154,,,
,8.086955504,2.946550053,-0.570608668,-0.356905708,0.399674414,0.84061682,,,
,9.675137216,5.926675433,-2.83717241,-0.321324873,0.466024771,0.808842406,,,
,7.762031138,6.645565578,-4.502588833,-0.301581142,0.495319776,0.797567074,,,
,7.532389654,7.530613485,-8.920379912,-0.320498879,0.486878287,0.801091131,,,
,5.573618839,6.726810994,-10.44656759,-0.337109684,0.446763507,0.81538318,,,
,7.730633051,8.76877528,-10.04114266,-0.352923955,0.436704995,0.835934557,,,
,11.38335359,9.444865478,-10.75894418,-0.344310805,0.421199694,0.849699694,,,
,15.28147195,13.67650257,-10.10783494,-0.334890214,0.424210194,0.861928033,,,
,21.73681554,18.93218713,-9.103898294,-0.371959633,0.396508359,0.873601427,,,
,29.78927898,22.16578904,-9.121946465,-0.41846738,0.359607543,0.877698879,,,
,43.36694633,27.67179886,-6.896120022,-0.232485117,0.420856065,0.851813456,,,
,54.32762895,45.53415919,-3.154992099,-0.439101835,0.335560347,0.929425688,,,
,66.04123541,63.2217674,-1.164078352,-0.388664322,0.338540265,0.917399083,,,
,83.80693776,77.02334665,-0.862931735,-0.420154638,0.334798981,0.911891131,,,
,97.43972365,100.8983834,-4.954881717,-0.409345464,0.455767074,0.73620581,,,
,121.945415,119.6161124,-9.010678061,-0.393462895,0.350005708,0.948623955,,,
,136.1985423,135.0082225,-21.40386976,-0.155314985,0.482243731,0.875048624,,,
,161.4106907,159.7702552,-36.39548236,-0.178995107,0.464518552,0.889545668,,,
,185.1132671,191.6053946,-54.80444443,-0.098655861,0.465061672,0.886160449,,,
,215.3339833,238.9157229,-71.34630893,-0.130142202,0.539137105,0.904124465,,,
,256.6157643,293.4778635,-95.32230083,0.133278186,0.421789704,0.723768196,,,
,312.2244696,391.3792193,-131.4835007,0.150824873,0.602327625,0.698847095,,,
,354.136848,462.3611843,-167.8894109,-0.456483792,0.926433231,1.140079103,,,
,352.1428403,411.3866763,-144.1222622,-1.096450357,1.210347604,0.819420591,,,
,343.8464687,433.0356574,-141.1180725,-2.014430377,2.054809786,0.978034251,,,
,375.8081172,381.7665344,-105.1734507,-1.934230683,1.501232314,0.849195617,,,
,350.3546963,269.4106567,-111.2360317,-1.70155739,1.718757085,1.676054944,,,
,342.9590144,212.9291075,-108.7193146,-1.220894292,1.803616922,1.901569521,,,
,266.6276288,96.06187475,-96.75160134,-0.964632314,1.784031498,1.779089908,,,
,187.1115147,43.33417314,-52.5960359,-0.319702039,1.670702854,2.064989399,,,
,-27.86757854,-148.4812105,39.73021132,-0.991148114,3.079592661,2.688591743,,,
,-136.929923,-189.1092466,91.65800654,0.356932212,1.386481346,1.628473598,,,
,-195.1462165,-178.8539897,101.6273576,0.385949337,0.506002854,1.095952599,,,
,-184.887178,-182.7051828,106.0820471,0.195418247,-0.121997859,0.873642915,,,
,-148.4969668,-194.4482393,108.6049522,-0.009221407,-0.279912742,0.776947095,,,
,-121.5776334,-215.2296477,102.8202557,-0.146093272,-0.114405097,0.76950897,,,
,-121.3757231,-231.260663,86.32119116,-0.22629001,0.164912334,0.809195719,,,
,-143.3000104,-244.0842033,70.56811765,-0.319170031,0.39176208,0.863060754,,,
,-172.4248302,-259.7724753,66.72339896,-0.470430887,0.516946789,0.922721713,,,
,-196.1269483,-281.2715706,71.64378862,-0.601956167,0.564328542,0.939804995,,,
,-211.2465597,-304.5416212,79.64531612,-0.68058318,0.573991641,0.894976962,,,
,-217.6287939,-323.5641065,86.15251239,-0.723821916,0.601194699,0.875028236,,,
,-220.7911198,-339.9223953,90.15869059,-0.800947706,0.67238002,0.877703262,,,
,-220.3046787,-351.0127956,92.37895934,-0.702295515,0.536021509,0.755479001,,,
,-184.0137038,-335.6812472,85.26477158,-0.608531498,0.361694699,0.682263507,,,
,-137.0065274,-302.5748863,75.69780879,-0.712612742,0.589867686,0.802459225,,,
,-103.4356697,-269.8491986,66.95034754,-1.014117125,1.104455352,1.216104281,,,
,-102.3578788,-280.4870768,72.17875931,-1.762830581,1.881718552,1.669997655,,,
,-128.0340656,-305.4134338,94.04030776,-1.954401937,2.205166565,1.552180938,,,
,-150.0942585,-312.2357569,126.6708844,-2.082181855,2.335408257,1.076516514,,,
,-179.637223,-297.6658412,152.0468987,-2.010916106,2.41041998,0.363785729,,,
,-204.2446144,-251.8256653,168.3160926,-1.935249745,2.434106932,-0.243429562,,,
,-210.2119125,-195.6813017,180.4928208,-2.108490724,2.168450153,-0.631771967,,,
,-174.7469136,-156.6971388,201.8026682,-2.538577676,1.718514373,-1.03949368,,,
,-122.6640187,-126.7713812,230.7085609,-3.146511417,1.494624975,-1.722555352,,,
,-61.53394832,-90.71073542,241.9431746,-3.107315392,1.217615291,-2.334969113,,,
,3.174415368,-0.746334824,169.6124669,-2.00414577,0.619707951,-2.162294903,,,
,59.1042062,91.06631303,85.5943369,-1.179869827,0.469382467,-1.215943323,,,
,23.45368357,255.6051814,10.35162848,-1.205671254,0.968594393,-0.830379205,,,
,10.02223505,258.7164568,-54.17522218,-1.366695923,0.639763099,0.976043527,,,
,-50.30368906,182.1064992,-67.88787838,-0.173735678,0.537029256,1.895426911,,,
,-6.647685522,180.2588249,-57.33290718,-0.378601631,-0.554940061,1.583920795,,,
,65.5553672,216.3961898,-55.36875056,-0.645784709,-0.651204179,0.742539042,,,
,96.65236505,193.1551308,-57.5552148,-2.162909888,0.635266667,1.567853721,,,
,96.60589817,121.9243875,-31.78156783,-1.265026911,0.690827013,1.259881346,,,
,121.0795039,125.2479438,-1.927315431,-0.280575841,0.492932314,0.598088175,,,
,52.77307986,163.3470588,-18.79347405,-1.51358787,2.026348726,1.574428542,,,
,16.49453819,88.37627618,-25.85867391,-0.55862528,0.321543629,0.855945362,,,
,-22.79541236,46.31928326,-16.40664646,-1.030470948,1.079345158,1.138695413,,,
,-20.03799567,29.4400612,-17.2247729,-0.620276351,0.663470031,1.049242304,,,
,-21.37184142,16.10378097,-13.81000174,-0.544432416,0.540320489,0.919790724,,,
,-13.18759768,6.905745713,-8.687472569,-0.470408155,0.473066157,0.900092864,,,
,-8.34942747,7.725419135,-7.592893997,-0.303279918,0.539831397,0.858324363,,,
,-7.784720267,8.15691365,-10.20369078,-0.345788889,0.501465138,0.839007951,,,
,-6.267642617,6.237963403,-7.936897857,-0.401020285,0.422901631,0.852550561,,,
,-2.26604808,5.419951559,-5.88421926,-0.396327217,0.40897421,0.860189501,,,
,-0.390642625,5.744073784,-3.337307269,-0.361624261,0.427432722,0.846997248,,,
,1.776455644,5.38586057,-1.510259452,-0.36633527,0.425156167,0.840881651,,,
,4.655568564,4.31637755,0.423072036,-0.383657492,0.396708461,0.830338328,,,
,8.359053161,4.624858027,2.686369918,-0.358464832,0.408946891,0.837561162,,,
,11.41658514,3.570615683,3.594221545,-0.328491845,0.434346483,0.828376962,,,
,11.37521759,3.821972268,1.798800998,-0.309470642,0.489160143,0.800844139,,,
,6.727212064,3.322295775,-1.713945948,-0.28736524,0.512283486,0.787948216,,,
,6.192470554,3.430355615,-3.313987887,-0.320466361,0.486154332,0.788651784,,,
,6.991288312,2.265016756,-1.461500744,-0.367793986,0.430719878,0.798950153,,,
,10.55067402,0.858233481,1.248990698,-0.389960856,0.393641488,0.830476045,,,
,12.99800595,-0.661422479,1.937342193,-0.358523955,0.402699185,0.857760754,,,
,14.61351775,0.692820566,1.508082213,-0.309571458,0.4582,0.828769623,,,
,13.85686968,1.288524785,-0.809417477,-0.315799898,0.479892864,0.808743629,,,
,14.94892724,0.432296656,-1.983980957,-0.304792661,0.489078389,0.818615902,,,
,12.47850512,0.087376064,-3.61301456,-0.331592151,0.486044343,0.82621682,,,
,12.07096024,0.432010178,-4.079688684,-0.360019674,0.447500714,0.842335984,,,
,13.99048344,4.597470644,-5.923352278,-0.382076249,0.430610296,0.838919164,,,
,16.90718239,8.29946555,-5.961339379,-0.344309276,0.418120285,0.84813894,,,
,21.25564558,14.74558452,-6.159582777,-0.341149949,0.433532008,0.849651784,,,
,25.06678895,20.5181916,-5.187731764,-0.362434557,0.425091437,0.854784404,,,
,33.56615947,24.95580702,-3.960456167,-0.405967278,0.342476962,0.910028033,,,
,53.17867668,34.10812025,-4.910191008,-0.117314985,0.556371764,0.824578593,,,
,63.06534992,53.33406284,-5.082880488,-0.379159939,0.396369215,0.915740877,,,
,73.02954434,73.00966271,-4.951386674,-0.358692049,0.377806218,0.912906014,,,
,94.61865136,88.71420669,-6.947457041,-0.376695515,0.394196228,0.876814169,,,
,106.7229004,111.214202,-14.11510176,-0.277905403,0.473748114,0.772110601,,,
,139.6723281,125.368093,-21.68547852,-0.284735678,0.393658512,0.945453211,,,
,153.1099073,152.8724163,-37.79951544,-0.085287564,0.525855046,0.91318104,,,
,186.4609784,185.8382879,-54.8835126,-0.076740469,0.474046381,0.940091233,,,
,213.7055799,230.0615196,-69.48322207,-0.120868909,0.55888634,0.977020285,,,
,256.9229843,283.599269,-98.37616587,0.145682569,0.45768053,0.809061468,,,
,312.78127,370.4185897,-135.3598467,0.194609174,0.370619368,0.744034862,,,
,381.3756053,459.2337515,-160.7649672,-0.40389052,0.728391437,0.845440673,,,
,365.4458317,416.8020442,-136.9943807,-1.215917329,1.322401427,1.061002548,,,
,366.1214062,436.0121731,-125.5264013,-2.042253211,1.970192151,1.343845973,,,
,372.4395837,383.7860961,-100.5074543,-1.648912232,1.277283792,0.692228542,,,
,346.364962,289.0009432,-102.9474523,-1.805019776,1.815303976,1.521582977,,,
,334.3441355,242.9744414,-122.7720785,-1.041007441,1.592453517,1.71127421,,,
,271.2602791,139.5267969,-107.3569928,-1.524912436,1.918868603,1.652208869,,,
,151.6818673,27.03094556,-64.97713819,0.687425484,0.610895311,2.074933435,,,
,-9.190930583,-130.2672259,7.488271903,-1.963632416,3.838882977,3.177090112,,,
,-160.0182313,-206.9204419,73.94885512,0.136303568,1.502538022,1.709131397,,,
,-221.6432227,-198.479112,83.31419406,0.562726096,0.573792966,0.980120183,,,
,-217.9411132,-190.6916415,82.53565901,0.285759531,0.020288685,0.708623344,,,
,-180.0304439,-187.6520431,81.06390232,0.224526606,-0.227318247,0.555624363,,,
,-146.9584032,-193.4797114,73.6315511,0.026095413,-0.060272375,0.59778685,,,
,-136.5404835,-212.7999056,65.48300263,-0.150360449,0.252205708,0.715133741,,,
,-149.1368461,-234.2729313,56.06689963,-0.246425484,0.50906106,0.791672579,,,
,-173.2553899,-252.5438106,59.9853007,-0.356660754,0.688155861,0.841175841,,,
,-198.1506352,-271.2485335,71.18719855,-0.48106208,0.787185015,0.861307034,,,
,-220.7763375,-290.2064464,84.36643105,-0.57543792,0.820010499,0.823102039,,,
,-232.4107612,-304.0924223,96.69619632,-0.594216106,0.766314373,0.759684302,,,
,-230.514672,-310.4761462,104.5843355,-0.585477574,0.65468736,0.695525892,,,
,-212.1295449,-311.5546819,106.4639808,-0.56263629,0.524423955,0.652774618,,,
,-177.7456028,-298.1051853,103.8019043,-0.614619776,0.487592559,0.643005097,,,
,-139.5543561,-272.7976394,94.71049649,-0.704577166,0.558486035,0.73225525,,,
,-98.24100513,-250.3561431,80.26829313,-1.066141896,0.809479103,1.138980428,,,
,-83.28663479,-264.9549931,64.7014309,-1.6526158,1.352060143,1.515646993,,,
,-87.26519642,-282.7743243,54.09128386,-1.690023445,1.585399286,1.442333333,,,
,-89.82053089,-281.442484,61.14347759,-1.868633843,1.800696636,1.154552396,,,
,-98.31543235,-282.1241318,84.36098795,-2.080540979,2.136319164,0.692090622,,,
,-133.8233458,-278.8601059,108.5731531,-2.254500204,2.479740265,0.177475433,,,
,-172.8163323,-251.8915554,129.1634227,-2.123889501,2.348918451,-0.410307238,,,
,-170.1840496,-212.1403165,150.9197761,-2.241204179,1.718707238,-0.919568909,,,
,-128.629025,-173.5331598,178.8944978,-2.558192049,1.38468002,-1.470338226,,,
,-90.64834032,-119.6261965,200.827093,-2.712654434,1.327927931,-2.041371356,,,
,-56.79323823,-40.59761212,173.7927097,-1.906522018,0.957577472,-2.041819266,,,
,-48.13533028,158.684271,91.78222379,-1.396166361,0.690294495,-2.137151682,,,
,-33.44887501,294.4385991,-21.76643745,-1.81808369,0.752775433,-1.603492762,,,
,0.973340702,261.7758222,-80.35314818,-1.564028746,-0.417280122,0.804352599,,,
,-29.72533689,146.9708364,-85.27548589,-1.373479103,-0.057952497,2.708268502,,,
,-2.586216896,151.7451791,-58.30578951,-0.236262283,-0.241750765,1.466244444,,,
,80.16659312,199.8381678,-56.28135774,-0.825008461,-0.229543629,0.751337003,,,
,124.5585036,161.2665918,-14.77463348,-1.336478797,0.885490724,1.241680938,,,
,103.942279,128.7111872,1.466141702,-0.970709582,0.652229664,1.036221916,,,
,27.49624459,160.1629605,-38.04359546,-1.662339857,1.755746891,1.452140877,,,
,-0.629107659,95.48341656,-31.79583447,-0.473337003,0.434100917,0.804472375,,,
,-27.3413168,51.29467686,-24.20752414,-1.214577982,0.746210805,1.260394292,,,
,-19.76354889,29.70660117,-18.40220117,-0.568164322,0.700485015,1.010814985,,,
,-22.86668831,17.79240219,-15.36157145,-0.53655107,0.527208461,0.913366769,,,
,-11.86005447,7.257828278,-8.819711228,-0.531897655,0.427709378,0.908401937,,,
,-3.796475646,4.667428791,-5.499134326,-0.319082263,0.495121713,0.86326106,,,
,-0.997691409,8.155080185,-6.25171439,-0.382043425,0.496141692,0.84759735,,,
,0.859322101,4.593288052,-4.354708426,-0.425442202,0.400621713,0.848399796,,,
,5.123274013,4.557821964,-1.521031059,-0.347396534,0.45828053,0.837405403,,,
,5.237980163,5.893271993,-1.148207421,-0.349753007,0.470623038,0.83903792,,,
,5.858436159,7.222476782,-0.974085548,-0.369435678,0.464527421,0.834810805,,,
,6.699824682,5.697320427,0.824944633,-0.385195311,0.440679511,0.830459429,,,
,9.471393424,4.868021315,2.346090284,-0.385217023,0.415225178,0.830410092,,,
,11.61116161,4.064046937,3.037191976,-0.346590418,0.445978287,0.826480326,,,
,11.77267841,3.805757563,1.341236903,-0.301596432,0.496838838,0.803788991,,,
,9.072672094,4.2844638,-1.622731067,-0.290524567,0.51150948,0.791128033,,,
,6.92683056,3.91805729,-2.322197944,-0.340169725,0.480029052,0.792198267,,,
,7.778532322,3.058677894,-0.415222514,-0.377263303,0.436114271,0.807727217,,,
,12.58112186,1.358712115,1.12895604,-0.400935678,0.415318451,0.818331498,,,
,12.81064875,-0.868775905,3.326191888,-0.367826606,0.450703772,0.817645872,,,
,13.49430199,-1.76958015,2.351189608,-0.326821509,0.483013354,0.808223649,,,
,12.95681028,-1.099563305,0.860066946,-0.323613354,0.516984506,0.797334455,,,
,12.322546,-3.566146613,0.05987409,-0.334676351,0.490770336,0.802976656,,,
,12.53660304,-3.607342278,0.421410458,-0.342614271,0.47144475,0.820220999,,,
,11.80109711,-1.182011931,-1.88715109,-0.347447604,0.427391437,0.846674006,,,
,15.89488056,4.098596292,-1.944389574,-0.356917737,0.419687768,0.851538736,,,
,20.85560645,9.435182491,-1.731936823,-0.356113761,0.424331295,0.846865545,,,
,25.11554765,14.63907167,-0.91323743,-0.34744526,0.435098879,0.848243629,,,
,31.15480929,19.47718458,-0.227865315,-0.362455556,0.415046177,0.859429154,,,
,48.0061283,20.07208666,-2.101551897,-0.37910051,0.381045973,0.88850316,,,
,44.43872118,41.98010199,-2.032395891,-0.265461162,0.498139857,0.838724669,,,
,59.15772046,49.07068389,-0.177903395,-0.360046279,0.455166871,0.854788889,,,
,68.58516802,64.85223339,-0.704394313,-0.302651682,0.430203976,0.882969827,,,
,89.14782115,81.60380045,-3.629630336,-0.355338328,0.448964526,0.859333333,,,
,106.774925,97.34822229,-6.098791954,-0.314513456,0.434792457,0.902682365,,,
,116.7330461,120.8750153,-14.83118441,-0.246665036,0.492540367,0.876374108,,,
,145.5686368,132.0906068,-27.51457924,-0.166267176,0.537850866,0.865301937,,,
,158.7241489,161.9906958,-43.92111111,-0.111087768,0.547773904,0.84929419,,,
,187.3781693,190.588108,-58.05958955,-0.164727523,0.576315698,0.890993884,,,
,214.737878,232.3239581,-73.57637526,-0.000767482,0.488213252,0.806241488,,,
,256.4510963,293.5828294,-98.91451702,0.008831804,0.419060958,0.72815474,,,
,312.4526214,365.3248803,-118.3060444,-0.086934047,0.421339348,0.610634353,,,
,333.2523645,402.5144821,-127.2515772,-0.935974516,1.052084709,1.133378287,,,
,333.8768885,385.135469,-108.006154,-0.754488889,0.92605158,0.665707951,,,
,361.8149408,403.9303754,-83.96146448,-1.827156065,1.637641488,1.200704485,,,
,355.5623097,382.3240224,-82.42605218,-1.673696534,1.499831906,0.606945973,,,
,380.8718608,319.1910634,-58.23525841,-1.728565749,1.659898165,1.152638124,,,
,344.0593798,245.268106,-78.42606193,-1.384355657,1.517600612,1.383150968,,,
,277.497956,168.7341226,-92.59272989,-1.424372579,2.04797105,1.49781366,,,
,211.6976494,85.55938648,-78.42222311,-0.140184811,0.841859735,1.223649439,,,
,166.3150375,4.962100985,-44.34561554,-1.469239755,2.543566463,2.239820489,,,
,-106.6943098,-164.7657596,15.81065577,-0.925990826,2.586395311,2.313024669,,,
,-211.2153908,-210.8430255,45.99974469,0.147146279,1.258381753,1.403694699,,,
,-258.2922388,-212.4769293,46.17839294,0.039118145,0.54162263,0.928254128,,,
,-245.4276175,-227.6341267,47.90717849,0.035614883,0.073848318,0.614933537,,,
,-208.927513,-226.9861114,48.24625491,0.07526473,-0.107696228,0.454322528,,,
,-173.7127821,-227.9554414,45.39372723,0.00127054,0.009677472,0.478781651,,,
,-159.8425052,-232.9985013,38.32302697,-0.153204485,0.274223751,0.607193374,,,
,-168.5798824,-249.2799565,37.43528616,-0.326614169,0.495635882,0.734397757,,,
,-186.2421658,-268.7107888,44.10674944,-0.460545668,0.645426402,0.800707747,,,
,-205.9345534,-287.8668878,56.19421086,-0.57001315,0.684276962,0.812607441,,,
,-217.7176023,-305.1130893,66.75359384,-0.647916616,0.65994842,0.780910907,,,
,-222.0263595,-320.2409513,74.24347002,-0.704544139,0.650981855,0.749536697,,,
,-220.4789151,-330.8551663,78.65576071,-0.6870842,0.646498675,0.697826402,,,
,-206.3621518,-327.8452472,77.3689548,-0.57670683,0.561596228,0.625184404,,,
,-174.5325701,-306.1248755,71.85366306,-0.598763201,0.523134862,0.61472946,,,
,-138.4824667,-276.1450308,66.89637492,-0.743816004,0.74138787,0.738949134,,,
,-108.0846492,-257.0722398,65.71069606,-1.116201121,1.139854638,1.115893986,,,
,-104.7528424,-273.6223549,76.60021732,-1.607963405,1.694002548,1.418909888,,,
,-131.7247733,-287.4557333,94.97680728,-1.663109378,2.080472171,1.253798675,,,
,-167.5952544,-278.2041838,119.1048049,-1.673540775,2.28509735,0.800478899,,,
,-196.7451125,-252.5514882,138.9148779,-1.735127217,2.254953109,0.258473394,,,
,-199.2583918,-222.2980561,155.9296618,-1.836546993,2.087913761,-0.156187768,,,
,-175.7814462,-192.4015767,169.5881162,-1.954197961,1.814690418,-0.424549541,,,
,-133.462898,-159.7484255,178.8976491,-2.093849745,1.49538104,-0.726702243,,,
,-94.30352457,-123.9358704,188.8303308,-2.344743425,1.386028644,-1.182927523,,,
,-60.9844245,-80.05085564,196.8508232,-2.72157737,1.262512232,-1.668956983,,,
,-16.15213861,-37.93204057,166.6816732,-2.318246789,0.910921611,-1.821868502,,,
,36.76120132,31.98365004,91.89561214,-1.431750866,0.469558512,-1.26616789,,,
,27.65128697,192.0798036,10.16965709,-1.00000632,1.003167788,-1.15836789,,,
,-1.418414318,248.0035211,-77.05629173,-0.754761162,0.148680326,0.222671764,,,
,-24.49119554,188.8464309,-68.75636781,-0.358849541,0.428485219,1.579954027,,,
,51.72628597,189.0502893,-38.34130433,0.300530173,-0.361324669,1.250112946,,,
,108.8694295,270.9676695,-26.07995021,-0.688588277,-0.022820082,1.047901733,,,
,135.393422,210.0786425,-19.10252748,-2.506677574,0.159203976,1.26849317,,,
,181.6068227,171.0697278,-20.5209418,-0.755424873,0.967029969,0.438830479,,,
,34.60682271,128.2477216,-46.11055473,-1.304691539,2.848382977,1.468667992,,,
,-25.8208014,93.79370672,-35.15044507,-2.030990826,1.005236595,1.536809174,,,
,7.792741676,11.96307228,-6.048715443,-0.770539144,0.182287462,1.131013456,,,
,6.065617698,11.34061093,3.550447569,-0.470288583,0.606517023,0.898019368,,,
,10.5293027,1.332012282,6.260824419,-0.493675739,0.5730316,0.79743476,,,
,3.933355264,-1.675786959,0.897996752,-0.280802039,0.723730887,0.75711947,,,
,-3.858985342,2.368378342,-7.517836526,-0.312588583,0.566256065,0.813503364,,,
,-1.487226549,0.77286277,-6.417356489,-0.459295617,0.430784913,0.853894597,,,
,-1.233005175,5.478622437,-7.101639983,-0.341058512,0.487590928,0.832654332,,,
,-4.043535048,10.31513107,-9.159704383,-0.345770744,0.483771662,0.826535678,,,
,-4.133031055,12.29985688,-9.299162311,-0.385198879,0.456082569,0.836708257,,,
,-4.305204873,12.85986582,-7.701985161,-0.389894495,0.466924771,0.829063303,,,
,-4.203447568,12.76687477,-7.341422821,-0.35201631,0.500047401,0.811163405,,,
,-4.140937873,10.12909168,-8.748148799,-0.380353721,0.484744546,0.800896942,,,
,-5.122070801,7.080154066,-8.580902419,-0.350389602,0.492412232,0.789346279,,,
,-5.179996834,6.20690909,-8.795074043,-0.344114883,0.486193578,0.796964322,,,
,-6.102745363,3.968993238,-8.877350782,-0.377237207,0.440003568,0.79918369,,,
,-3.414656572,2.867138103,-6.328891805,-0.393019062,0.43153211,0.808077472,,,
,-1.456344124,2.44687356,-4.815309198,-0.378851886,0.42762528,0.810078797,,,
,-0.754012458,1.525328242,-4.863494948,-0.35990948,0.45536208,0.803482671,,,
,-2.002831269,1.588067121,-6.268444758,-0.347272681,0.467702345,0.793890724,,,
,-0.587453627,2.018530312,-6.916001658,-0.32684842,0.466026096,0.812854944,,,
,-0.280119066,3.687556369,-7.359642878,-0.365454434,0.456873496,0.816049235,,,
,1.799946913,2.643741858,-4.715442654,-0.397756065,0.440004077,0.815197961,,,
,3.848328327,2.357606735,-3.815612437,-0.388305912,0.446138328,0.817326504,,,
,4.160418438,1.6141367,-3.147314464,-0.393004383,0.458517227,0.811239246,,,
,4.572260501,1.270190136,-2.681499777,-0.383528135,0.466229766,0.804042406,,,
,3.563797486,1.081687021,-2.235681317,-0.366222936,0.462295923,0.810636086,,,
,5.099496264,2.203366497,-2.050902428,-0.381992661,0.458464424,0.816429358,,,
,6.771444406,2.087342543,-2.337266734,-0.388294495,0.452317941,0.81500632,,,
,8.459549958,3.311925239,-2.098744404,-0.396159021,0.446193884,0.808955046,,,
,11.12855925,2.837688072,-0.676892339,-0.408774006,0.440048012,0.812339959,,,
,12.16876413,2.570861627,0.72398947,-0.399309072,0.453907543,0.811374006,,,
,13.72789688,2.240436866,0.126108011,-0.378789195,0.477020693,0.802400815,,,
,13.25744124,2.524165566,-0.598626304,-0.364611417,0.483144139,0.803644241,,,
,14.97751784,2.606327714,-1.036996313,-0.363033028,0.48699633,0.8036158,,,
,16.07037753,1.446088179,-2.214080808,-0.372517329,0.472338736,0.811576555,,,
,20.63776789,0.057467667,-2.211788977,-0.394544241,0.470898777,0.801970642,,,
,24.11946053,-0.069499781,-0.982622619,-0.406388481,0.454711417,0.808427625,,,
,22.67446097,6.628606028,1.464079054,-0.380414577,0.456923038,0.81483578,,,
,26.43243385,9.940473971,0.357411073,-0.363109786,0.459922426,0.823775025,,,
,29.8663991,16.73936306,-0.057009301,-0.366291335,0.462198267,0.836289195,,,
,34.71001241,23.21189538,-0.968699744,-0.35526371,0.478346585,0.840733333,,,
,42.31849086,30.63152694,-3.842140383,-0.334019674,0.482877166,0.849585729,,,
,50.02958605,38.76174076,-6.810692015,-0.319060041,0.492071865,0.853926606,,,
,60.48417505,47.33508013,-10.04584091,-0.331660449,0.483635678,0.851088073,,,
,70.44854136,59.36730842,-13.46680002,-0.358502548,0.46436208,0.869540877,,,
,88.41420599,72.79973097,-18.4112539,-0.344286035,0.499045973,0.865397961,,,
,94.26462074,87.65566716,-24.6492173,-0.267864832,0.501169929,0.855109276,,,
,107.937571,107.3699417,-32.79432802,-0.262396738,0.504171152,0.872868909,,,
,123.0177055,124.4368647,-40.83728037,-0.26155158,0.498858206,0.84951947,,,
,143.8502791,147.8499256,-52.24807863,-0.238466157,0.514549949,0.761963405,,,
,161.0092764,171.2724975,-62.21530973,-0.284039246,0.509443425,0.721016922,,,
,180.9233986,194.3632123,-71.31743186,-0.392517431,0.534712334,0.652802854,,,
,194.4930446,209.3553406,-78.03387232,-0.60354526,0.70026106,0.692917737,,,
,190.923231,200.823999,-71.20478836,-0.670508155,0.660370133,0.688147706,,,
,221.5526953,208.9733496,-61.20289331,-0.739024771,0.665197757,0.689719266,,,
,228.729622,127.9646804,-37.85514964,-1.323983996,1.068244343,1.044313048,,,
,210.0557815,107.1915226,-47.71225825,-0.829566259,1.025642712,0.499712232,,,
,220.7653367,73.25334166,-27.69511824,-1.127041081,1.141279817,0.750800917,,,
,188.7844942,7.351105807,-28.76454396,-1.326208359,1.403161468,0.80404842,,,
,141.957513,-34.6653217,-44.08858667,-0.681808767,1.152656167,0.653611927,,,
,64.66080819,-63.09772203,-53.98946926,0.049625586,0.765394088,0.898914169,,,
,11.11114134,-72.81921154,-51.56688911,-0.020162997,0.638563405,1.040175637,,,
,-61.75356305,-121.7495208,-46.53419973,-0.610602548,1.286248012,1.165284811,,,
,-105.5927985,-147.4796802,-23.7451472,0.169733333,0.331869317,0.60927156,,,
,-132.3693508,-142.4118685,-9.43397928,0.312874006,0.212878491,0.34770316,,,
,-142.2007909,-137.2911155,6.661608397,0.245996126,0.039058308,0.26804577,,,
,-139.2167121,-143.536069,25.43285168,0.047320795,-0.013039551,0.331550153,,,
,-131.4682601,-164.8593236,42.92135705,-0.113318451,-0.011758614,0.324332416,,,
,-115.6094185,-170.6481454,50.23951779,-0.08480367,-0.03626371,0.255229766,,,
,-99.39425458,-166.0718742,51.59748506,-0.212488685,0.137313456,0.349427625,,,
,-106.0429714,-171.1998465,55.77830079,-0.490031397,0.525962691,0.596709582,,,
,-137.3140912,-187.1194788,62.40421392,-0.655514067,0.82215423,0.728543425,,,
,-169.4165726,-198.4877636,69.89580898,-0.626208665,0.820763405,0.665686544,,,
,-182.3958429,-198.5396736,74.95554197,-0.579507645,0.753935576,0.555665443,,,
,-179.9143054,-192.2479095,81.05616739,-0.585745566,0.769451784,0.537182263,,,
,-171.3835367,-191.1034836,90.91912017,-0.691406932,0.942923344,0.641760347,,,
,-169.4314695,-188.4670756,102.3398306,-0.705579918,1.071627625,0.681979001,,,
,-159.9573832,-184.2119472,112.5321768,-0.77106422,1.04469103,0.717621611,,,
,-140.298571,-179.7133691,118.4381685,-0.834813863,0.915513558,0.660522732,,,
,-109.8279879,-165.0888505,118.6088526,-0.888177472,0.828118451,0.561293272,,,
,-86.73429373,-137.5781101,112.9161731,-0.920860143,0.758673802,0.390890928,,,
,-104.9235838,78.21011413,52.63803371,-1.053216208,1.221072783,-1.217359633,,,
,-57.19064176,216.1853986,-59.1246035,-2.370238226,-0.055329256,-1.239580224,,,
,50.67966397,152.5555706,-46.13215524,-1.358810805,-0.046022018,-0.430883078,,,
,58.46959815,130.5318178,-52.54504266,-1.884509276,0.921590724,1.510763405,,,
,23.70206077,65.15595832,-23.61147615,-1.053091233,0.884870438,1.585792661,,,
,-28.57351983,32.42213464,-6.954733605,-0.603330377,1.1505421,1.348302243,,,
,14.10627821,25.82028574,2.265245939,-0.331913456,0.534120999,0.962350255,,,
,3.543801259,-1.566924978,8.660600848,-0.732188277,0.347824261,0.978107339,,,
,11.70002736,-1.332871719,8.675153976,-0.69308053,0.399295005,0.800086239,,,
,6.628835211,-5.986263044,6.754427559,-0.31558369,0.55416055,0.751361978,,,
,4.76695156,-4.61001842,3.392941471,-0.36480367,0.47131366,0.872030071,,,
,4.555873908,-6.176485032,3.637250675,-0.385183792,0.473823445,0.83674261,,,
,3.939772391,-6.477115987,3.678790115,-0.378789602,0.486264934,0.805528236,,,
,1.884286301,-5.900319374,2.470651308,-0.330751886,0.513851784,0.815369521,,,
,0.248491796,-3.437975954,1.282394137,-0.309510805,0.507592457,0.821869011,,,
,-2.62105273,-3.821513902,0.05729578,-0.320564322,0.49757054,0.829097248,,,
,-2.128423617,-5.77140387,-0.414993331,-0.341058512,0.458315494,0.823269113,,,
,0.837664296,-4.649437916,0.094251557,-0.315124057,0.445833231,0.839754536,,,
,1.806535928,-0.98273721,1.732051415,-0.368719368,0.42436208,0.848707645,,,
,4.871516357,-1.00989541,2.854991397,-0.350520591,0.45524577,0.826588073,,,
,4.041071329,0.390069667,1.879588047,-0.342562691,0.490778491,0.807043119,,,
,1.351836622,-1.085296656,-0.0705884,-0.345682161,0.49545423,0.797018145,,,
,0.20947337,-0.365432482,-1.57368588,-0.328372783,0.489215291,0.801275229,,,
,-1.403345528,0.516750635,-1.229853907,-0.337860347,0.470701019,0.809228542,,,
,-1.934477404,-0.128629025,-2.425158459,-0.35286106,0.452202854,0.817307645,,,
,-1.816619985,1.310411773,-1.949889968,-0.34341998,0.459865036,0.823325994,,,
,-1.71703992,1.359342369,-1.999336226,-0.337889297,0.468348522,0.819329867,,,
,-1.511806438,2.119714659,-2.042651835,-0.320558512,0.477548216,0.820507339,,,
,-2.130887336,1.701799243,-2.415303585,-0.308751478,0.476733537,0.822568603,,,
,-2.641965689,2.708543385,-2.876935681,-0.31742528,0.474432926,0.825871152,,,
,-3.051515921,2.656805296,-3.035186624,-0.344194495,0.47529419,0.823373802,,,
,-2.545307709,2.600770024,-3.182551369,-0.358374822,0.466085321,0.822124465,,,
,-0.973455294,1.730389837,-3.167539875,-0.363097452,0.462251274,0.819892661,,,
,-1.517306833,1.705580765,-2.353080369,-0.355227727,0.462219368,0.822045158,,,
,-1.894427654,1.704835919,-0.764497586,-0.353642813,0.459147197,0.817339042,,,
,-1.31751645,0.284760024,-2.155811,-0.352863609,0.461444139,0.821212334,,,
,-0.999467578,1.415434937,-1.782930067,-0.352867584,0.459127115,0.821985219,,,
,-0.987550056,1.33407493,-1.114975869,-0.352075841,0.459130785,0.820412538,,,
,-0.593584276,1.46562604,-1.776684827,-0.353633129,0.460701733,0.814232518,,,
,-0.586135824,0.820704746,-1.215931033,-0.353636697,0.461467176,0.815788787,,,
,-0.582755373,0.927389487,-1.060888653,-0.353633843,0.459930377,0.814231091,,,
,-1.402829866,0.51411503,-1.332527944,-0.352069725,0.461450765,0.818862283,,,
,-1.477428971,0.003093972,0.25685698,-0.352066463,0.465307441,0.818869827,,,
,-0.577713345,0.228380977,-0.603209967,-0.353635372,0.463009786,0.815791743,,,
,-0.974085548,-0.258976923,0.056092568,-0.356788379,0.459933639,0.815857594,,,
,-1.273627883,-0.147994998,0.310142055,-0.359938736,0.459942813,0.81592946,,,
,-2.098687108,-0.618565236,-0.168105817,-0.353634455,0.459159021,0.814229562,,,
,-2.609364391,-0.470283758,-0.32893507,-0.341042202,0.462961264,0.818613863,,,
,-1.07125919,0.554393963,0.059702202,-0.33947788,0.459859531,0.821681448,,,
,-1.283769236,-0.066176625,-0.307277266,-0.352872273,0.456038838,0.822756677,,,
,-0.549180047,0.019251382,0.886308413,-0.356806014,0.453745158,0.820509888,,,
,0.45830894,-0.858061594,0.635925857,-0.353656983,0.452193272,0.820435066,,,
,-0.080958936,-0.166444239,1.559304639,-0.344197248,0.459882161,0.819457085,,,
,-0.250096078,-0.242246556,0.73390164,-0.341039551,0.466046687,0.818619878,,,
,-0.468049223,-0.618336053,0.059644906,-0.344187054,0.464519062,0.817133945,,,
,-1.061175132,-0.235657541,0.826033253,-0.350490418,0.46145209,0.817271662,,,
,-1.166484775,0.161287619,0.467361673,-0.355228033,0.452203772,0.818916208,,,
,-0.641254364,-0.823512239,1.649316309,-0.347351478,0.455263303,0.81951998,,,
,-0.042341581,0.01615741,0.892725541,-0.337893272,0.466031498,0.820102752,,,
,-1.362207158,0.378954286,0.929280248,-0.340243119,0.469138634,0.816275739,,,
,-1.269445291,-0.042284285,0.46455418,-0.353653007,0.456821305,0.820444037,,,
,-1.45978187,0.079927612,1.1308468,-0.345779918,0.458335168,0.82182212,,,
,-0.870380187,-0.611288672,0.259607177,-0.341049134,0.464492151,0.8217263,,,
,-2.808066154,0.345321663,-0.325210845,-0.342626402,0.464493782,0.822539653,,,
,-1.179949283,0.039820567,-0.150745196,-0.345767686,0.462975025,0.818721611,,,
,-1.081801613,-0.16902255,-0.305443801,-0.34656208,0.459886035,0.820288379,,,
,-1.696298848,-0.225917259,-0.571468105,-0.349723344,0.456798063,0.82346371,,,
,-2.100004911,0.2348554,-0.522422918,-0.343421305,0.458322324,0.823322936,,,
,-1.491867507,0.129603053,-0.566025006,-0.343414577,0.46141366,0.82177421,,,
,-1.78722725,0.247231289,-0.105997192,-0.350504179,0.459891641,0.821932926,,,
,-1.295858645,-0.236860753,-0.874734666,-0.345779918,0.458335168,0.82182212,,,
,-1.472444238,0.666120733,0.312663069,-0.346564118,0.459883078,0.821065749,,,
,-2.520212158,0.518813283,-1.296775378,-0.348924873,0.459892966,0.820342202,,,
,-2.101150826,0.031512679,-0.523683425,-0.347355148,0.458339755,0.821858002,,,
,-1.796566462,0.181742213,-0.56963464,-0.34577737,0.461420489,0.821828135,,,
,-1.887724048,0.14851066,-0.00584417,-0.345773598,0.456033028,0.818708155,,,
,-1.386328681,0.336097043,-0.460715363,-0.344211417,0.452928236,0.822553109,,,
,-1.48911731,0.335123014,-0.513083706,-0.34736055,0.456791131,0.823409786,,,
,-1.29035825,0.377751074,-0.767075896,-0.348932926,0.455259021,0.821887971,,,
,-1.683751073,0.552216723,-0.102731333,-0.347357085,0.456025688,0.821853517,,,
,-1.894255766,0.137452575,-0.366234623,-0.34577686,0.452176249,0.818700714,,,
,-1.781039306,0.962569096,0.00148969,-0.342640469,0.455228746,0.824853721,,,
,-1.177886635,0.899142668,-0.3502491,-0.347365341,0.456013863,0.824962997,,,
,-1.281821179,0.643145125,-0.405138457,-0.347366055,0.455242508,0.82496157,,,
,-1.164078352,0.669787663,0.470971308,-0.346568807,0.456794801,0.821837105,,,
,-1.786367814,0.348530227,-0.105768009,-0.345785423,0.456786544,0.823373904,,,
,-1.526932524,0.153839168,0.204947003,-0.350513558,0.453714985,0.823475637,,,
,-0.914555233,0.408117837,0.266654558,-0.349725994,0.45371264,0.823457696,,,
