Packet number,Gyroscope X (deg/s),Gyroscope Y (deg/s),Gyroscope Z (deg/s),Accelerometer X (g),Accelerometer Y (g),Accelerometer Z (g),Magnetometer X (G),Magnetometer Y (G),Magnetometer Z (G)
,-0.966751688,-0.199102834,0.36531789,-0.359134455,0.442963914,0.82504577,,,
,-0.468965955,-0.16724638,-0.193430552,-0.356768807,0.441420285,0.823434251,,,
,-0.724619724,0.285619461,-0.399065104,-0.356771662,0.442957085,0.824991947,,,
,-1.169120381,0.156130999,0.313522505,-0.355987462,0.441409072,0.825748318,,,
,0.349618847,0.191539791,-0.025095551,-0.358348114,0.44141896,0.825024873,,,
,-0.980846449,-0.070301921,-0.40536764,-0.355195209,0.444495107,0.824959021,,,
,-0.870723961,0.246085373,-0.041654032,-0.35519368,0.441415698,0.823398267,,,
,-0.051508906,0.353629551,0.228037202,-0.359923445,0.443734557,0.82584261,,,
,-0.455616039,0.308365885,0.376032201,-0.355986137,0.442951784,0.825751376,,,
,-0.668699043,-0.262471966,0.008708958,-0.355200612,0.442946585,0.826510703,,,
,-0.15435483,0.756590768,0.075172063,-0.356767482,0.442962997,0.823437207,,,
,-0.555024216,0.969788364,0.328648591,-0.359917839,0.442972171,0.823509072,,,
,-0.051165131,0.304068702,0.278743967,-0.355979918,0.442960652,0.823419266,,,
,-0.461517504,0.14770852,0.117685531,-0.355983384,0.443726096,0.824975433,,,
,-0.166501535,-0.173262437,-0.343831973,-0.35520051,0.440635474,0.825728848,,,
,-0.117857418,0.581494866,-0.645666139,-0.356768807,0.441420285,0.823434251,,,
,-1.329032902,-0.562816442,0.100038431,-0.356778389,0.439865749,0.826540673,,,
,0.140145477,0.333805211,-0.386918399,-0.356772987,0.441414373,0.824988889,,,
,-0.251986838,0.763523558,0.279832587,-0.359917839,0.442972171,0.823509072,,,
,-0.352884706,0.361020707,0.429603755,-0.359917839,0.442972171,0.823509072,,,
,-0.671277353,-0.114133193,-0.144270773,-0.355979307,0.443732008,0.823420693,,,
,-0.457965166,1.567612527,-0.077120119,-0.355196432,0.442952497,0.824955963,,,
,-1.058711414,0.170168465,0.77801939,-0.356772987,0.441414373,0.824988889,,,
,-0.961595068,0.566426076,0.422499078,-0.358348828,0.440647604,0.825023344,,,
,-0.148969027,0.612950249,0.382449328,-0.355197757,0.441409786,0.824953007,,,
,-0.768508291,0.145302097,0.010370536,-0.353621305,0.44294791,0.824920082,,,
,-0.154870492,-0.154240238,0.27381653,-0.355987564,0.443720183,0.826530173,,,
,-0.26568053,0.134587786,-0.290947968,-0.358350357,0.443727013,0.826584098,,,
,-0.917534613,0.352999298,0.112987277,-0.358352294,0.441413048,0.826579613,,,
,-0.714764849,-0.203170834,0.265795121,-0.356767482,0.442962997,0.823437207,,,
,0.136020181,0.125248574,-0.543049398,-0.355194903,0.439872987,0.823395311,,,
,-1.071431077,0.149370097,0.108919277,-0.353623242,0.440633843,0.824915596,,,
,0.252559796,-0.002979381,0.280176362,-0.352047401,0.441400612,0.824881142,,,
,-0.448855137,0.673053522,0.636269631,-0.358348216,0.443729969,0.825806728,,,
,-0.566311485,0.143411336,-0.038044398,-0.355979307,0.443732008,0.823420693,,,
,-0.457621391,0.154011055,0.323262788,-0.35519368,0.441415698,0.823398267,,,
,-0.662912169,0.302750899,0.167532859,-0.3567737,0.442954128,0.825769317,,,
,-0.445245503,-0.027616566,1.042038342,-0.355190214,0.442961366,0.822623955,,,
,-0.476987364,-0.484263928,-0.556112836,-0.355201937,0.441403874,0.826507747,,,
,-0.558003597,-0.046409581,0.423530402,-0.356779409,0.446027625,0.828884709,,,
,-1.46969404,0.920628585,0.264420022,-0.370967278,0.435267176,0.829964424,,,
,-1.37412468,-0.148166886,0.308938843,-0.362284811,0.442973089,0.825117635,,,
,-1.068222513,-0.552560498,0.463694744,-0.355986035,0.440640775,0.824969521,,,
,-0.864478721,0.154927788,0.317590506,-0.352045464,0.443714577,0.824885627,,,
,-0.568488724,-0.012948846,-0.142208125,-0.355204077,0.443711927,0.828066972,,,
,-0.963715011,-0.548263314,0.619539264,-0.3552,0.443717839,0.826512232,,,
,-0.658213915,0.359989383,0.373511187,-0.358354944,0.438327727,0.826573598,,,
,-0.459053785,-0.15177652,0.320970957,-0.355198573,0.442949541,0.825733333,,,
,-0.765643502,0.09923629,0.164381591,-0.355985423,0.441412029,0.824970948,,,
,-0.565165569,-0.259779064,0.112929981,-0.353624771,0.443713252,0.826476351,,,
,-1.277925066,0.144901026,-0.048243046,-0.350474414,0.443704077,0.826404485,,,
,-0.568889795,0.542591032,-0.292380363,-0.352835066,0.443713965,0.825680938,,,
,-0.069614372,-0.030309467,-0.649906027,-0.355206116,0.441397961,0.828062487,,,
,-0.300401772,0.412529612,0.481628323,-0.353629562,0.442935984,0.828029562,,,
,-0.376204088,0.120435729,-0.75561674,-0.355200612,0.442946585,0.826510703,,,
,-0.059759498,0.643087829,-0.284588137,-0.355197757,0.441409786,0.824953007,,,
,-0.553591822,1.021812932,0.380100201,-0.355985423,0.441412029,0.824970948,,,
,-0.059301132,0.745360796,-0.283499517,-0.358344037,0.441424873,0.823470133,,,
,-0.109778714,0.08932412,-0.083823725,-0.35519368,0.441415698,0.823398267,,,
,-0.359244538,-0.155042379,0.219500131,-0.356772987,0.441414373,0.824988889,,,
,-1.063409668,0.71774423,0.370760989,-0.356777064,0.441408461,0.826543629,,,
,-0.260523909,0.446162235,-0.083136176,-0.353620591,0.443719164,0.824921611,,,
,-0.056550934,-0.059071949,0.070072738,-0.355200612,0.442946585,0.826510703,,,
,-0.647327717,0.176700184,1.040720539,-0.35519368,0.441415698,0.823398267,,,
,-0.915643852,0.760200403,0.116023954,-0.355200612,0.442946585,0.826510703,,,
,-0.577140387,-0.682392734,-0.404450908,-0.3591316,0.441427217,0.823488073,,,
,-0.95735518,0.067723611,0.778363165,-0.355201121,0.439864118,0.825727421,,,
,-1.476283055,-0.148567956,0.306933491,-0.353617125,0.442953823,0.823365341,,,
,-1.264116783,-0.2877967,0.771544967,-0.356778389,0.439865749,0.826540673,,,
,-0.358098622,-1.06283671,0.520818636,-0.353624669,0.441402243,0.825694495,,,
,-0.344576818,0.979127576,0.690757918,-0.350476351,0.441390112,0.8264,,,
,-0.460944546,0.956094673,-0.08199026,-0.353625382,0.442941896,0.826474822,,,
,-1.121851363,-0.153151619,0.208613933,-0.352050153,0.4406263,0.825657085,,,
,-0.255481881,0.554107484,0.123243222,-0.353630887,0.441393374,0.828026504,,,
,-0.764612178,0.958615687,-0.034835834,-0.355206728,0.440626606,0.828060958,,,
,-0.869749933,0.550154075,-0.090527332,-0.356775841,0.442951172,0.826546687,,,
,-0.652197858,-0.184778889,0.883672807,-0.35361998,0.44449052,0.824923038,,,
,-0.716483723,0.197613144,0.063139949,-0.353622834,0.446027319,0.826480836,,,
,-0.656781521,1.069425725,0.27599377,-0.352054434,0.442931397,0.827993578,,,
,-0.31019935,-0.007620339,0.066749583,-0.353630887,0.441393374,0.828026504,,,
,-0.762148459,0.407774063,0.269633938,-0.353624771,0.443713252,0.826476351,,,
,-0.155729929,0.550669737,0.021772396,-0.353630887,0.441393374,0.828026504,,,
,-0.272842502,-0.281207686,-0.551815652,-0.35362263,0.441405199,0.824917125,,,
,-0.460199701,0.35093665,0.119003334,-0.352053109,0.444474108,0.827996636,,,
,-0.348301044,0.316902956,0.685773185,-0.349686137,0.444473191,0.826387971,,,
,-0.112700798,1.090968938,-0.641770026,-0.366256779,0.432150357,0.834514883,,,
,-0.672595156,1.043528032,-0.547518469,-0.345756473,0.444449847,0.829407645,,,
,0.859952355,0.748340176,-0.065317189,-0.3552,0.443717839,0.826512232,,,
,-0.257028867,1.209170131,-0.128227955,-0.359926198,0.442960347,0.826618451,,,
,-0.30870966,2.217690442,-0.430176713,-0.350478695,0.446009276,0.828741081,,,
,-0.470054575,1.750615247,-0.744100289,-0.352044343,0.449879409,0.826452294,,,
,-0.11757094,1.591275684,-0.945896024,-0.364657187,0.441425484,0.828277982,,,
,-0.86585382,1.011270508,-0.034950426,-0.368589501,0.438363405,0.825252396,,,
,-0.85445196,1.484934718,0.432353952,-0.378824669,0.437627829,0.823929664,,,
,-0.546601737,-0.227922611,1.091771079,-0.371726911,0.443783792,0.822225178,,,
,-1.756287529,-0.510562691,1.741046852,-0.358343119,0.452211825,0.82660051,,,
,-0.839325874,-0.763638149,1.905829514,-0.356772069,0.452201325,0.828119368,,,
,-2.880258836,-0.010886198,1.317631041,-0.352042406,0.452193476,0.826456779,,,
,-2.314004647,0.047727384,1.633846449,-0.353625382,0.442941896,0.826474822,,,
,-1.361806087,-0.027845749,0.926300867,-0.356770642,0.436795209,0.82264791,,,
,-1.650576816,1.060487583,1.496565761,-0.35991896,0.436807339,0.821942304,,,
,-2.46818759,0.096715276,1.529510834,-0.359920489,0.439886748,0.823503058,,,
,-2.168530663,-1.023474509,1.576206894,-0.35597421,0.439887156,0.820303772,,,
,-2.101150826,-0.747824514,2.297503463,-0.350481753,0.422892762,0.822477268,,,
,-1.336424057,-0.644520224,2.412095022,-0.355196228,0.423692661,0.818699694,,,
,-1.749469332,-0.098204966,1.948056503,-0.345754128,0.437519572,0.826284709,,,
,-2.752489248,-0.979929717,2.905812754,-0.364644546,0.436821101,0.822050153,,,
,-2.062648062,-3.341719044,2.331193381,-0.374883894,0.421441896,0.817589501,,,
,-2.873096864,-3.990708339,2.675025354,-0.370946177,0.426052599,0.819063405,,,
,-2.978349211,-6.370259358,3.1183228,-0.372523547,0.42836524,0.820658512,,,
,-3.796991308,-6.97977186,3.051916992,-0.377233537,0.436875535,0.817673293,,,
,-3.737117219,-8.835524863,4.065937697,-0.353616004,0.449118552,0.824932008,,,
,-4.975049831,-9.113409394,3.274339208,-0.318968502,0.470579613,0.833512029,,,
,-5.242850304,-8.429584265,2.348897777,-0.30322895,0.465893884,0.836253313,,,
,-6.028375441,-6.393464149,0.604642361,-0.290628236,0.46739684,0.836746279,,,
,-6.703835386,-4.54905571,-0.829700183,-0.317436595,0.448941998,0.842762589,,,
,-5.981679381,-3.780432828,-0.659531718,-0.345817635,0.421250459,0.844910092,,,
,-3.936735715,-4.225563739,0.032945073,-0.341107747,0.417362283,0.849459123,,,
,-1.395897076,-4.338436425,0.013750987,-0.325360245,0.407294903,0.847525688,,,
,-0.049618145,-1.072004035,0.417686233,-0.323801325,0.414971152,0.856055759,,,
,1.152905675,-0.850498551,-0.540872159,-0.326938532,0.413458308,0.850683078,,,
,2.987974902,2.539062469,-1.054356935,-0.318249643,0.433499796,0.847414883,,,
,2.545307709,3.227184781,-0.333060366,-0.3339579,0.445934455,0.835360143,,,
,3.440496968,3.599378165,-1.397329471,-0.333928338,0.449058206,0.825260347,,,
,1.147749055,3.600180306,-1.634132927,-0.331556881,0.456767686,0.824444139,,,
,-0.280577432,2.434497672,-1.611615686,-0.33156371,0.453676453,0.825992864,,,
,1.148608492,2.631251378,-1.64387321,-0.33951682,0.42123211,0.844766463,,,
,1.979339999,3.263109235,-0.85554058,-0.334794088,0.437392762,0.85090897,,,
,1.743395979,4.708452569,-0.230500921,-0.326913863,0.447391335,0.852303568,,,
,2.583466698,5.985289015,-1.64794121,-0.309545362,0.476675433,0.845746279,,,
,1.323876281,7.037755189,-4.072182937,-0.333175943,0.47828104,0.847842813,,,
,0.604012108,6.324823805,-4.239085543,-0.355198777,0.493795821,0.842156677,,,
,0.159797929,2.277965602,-5.149973846,-0.378798063,0.473874924,0.825554638,,,
,-1.361748792,-0.796010265,-4.221724922,-0.363048216,0.427601835,0.81111315,,,
,-2.264157319,-2.087686318,-3.267119939,-0.366217125,0.425273394,0.817399388,,,
,-0.613122137,-3.268208559,-1.659629549,-0.352061162,0.439840163,0.829542406,,,
,-1.212378694,-1.484590943,-1.703976483,-0.36943629,0.449066871,0.850944343,,,
,0.540356497,-1.701913835,-0.293411687,-0.366264424,0.447547503,0.842318451,,,
,-0.055233131,-1.981689126,0.466273054,-0.370997859,0.423667482,0.837715698,,,
,0.093621304,-2.446758968,0.360046678,-0.345826096,0.425860754,0.849583282,,,
,0.158995788,-1.414289022,0.882870667,-0.328510805,0.441201529,0.858546381,,,
,0.777904798,-0.646582872,0.948417038,-0.372623955,0.390471967,0.846238328,,,
,3.226038865,-1.544350441,1.748495303,-0.393044852,0.393693884,0.826499796,,,
,2.094905586,-4.27741642,2.176151002,-0.369322936,0.433820489,0.803495107,,,
,0.562587259,-4.940271293,2.095879615,-0.323627829,0.44141264,0.799358919,,,
,-1.061289724,-5.084312882,2.22708695,-0.320509072,0.452914373,0.814856779,,,
,-1.257012107,-4.269910672,2.177354213,-0.334732212,0.412828338,0.819766565,,,
,0.101585417,-2.223534611,1.078421162,-0.292167584,0.42430999,0.809490724,,,
,1.369311835,1.124257786,2.407855134,-0.324538124,0.40657156,0.83429103,,,
,2.313259802,1.597406333,1.293795997,-0.325263609,0.4089737,0.811769929,,,
,2.430945333,3.338911551,1.670286564,-0.320567788,0.439733537,0.832710805,,,
,2.822905761,3.112134856,0.903497147,-0.341042712,0.430551988,0.829272987,,,
,3.379706146,3.611295687,0.605902868,-0.349701223,0.412094597,0.82166106,,,
,2.982245324,4.38736702,0.966751688,-0.342596228,0.424424261,0.819191233,,,
,2.400005612,3.597487404,0.028074932,-0.346511825,0.433712538,0.81385739,,,
,0.205863736,4.450506969,-0.611804334,-0.339432008,0.452939857,0.823061468,,,
,-1.89895402,4.025486877,-1.466485477,-0.340170438,0.452241896,0.804421203,,,
,0.52849627,5.152036494,-2.509268664,-0.300032314,0.422808053,0.80500316,,,
,-1.702887863,5.573217769,-2.378691582,-0.326831193,0.452131804,0.822772579,,,
,-3.44725787,5.551674556,-3.382169865,-0.355171662,0.384437207,0.796857288,,,
,0.081703782,8.052864515,-5.735995079,-0.263944648,0.421729867,0.85703629,,,
,-4.814105986,5.780513899,-5.86766078,-0.315861774,0.428906218,0.836468909,,,
,-3.994833635,1.035964989,-4.50018241,-0.371053211,0.441307747,0.86418053,,,
,-3.208907427,-1.092000262,-2.64901307,-0.444241284,0.441603976,0.844084608,,,
,0.249465824,-4.19840554,-1.865493285,-0.333274414,0.396477574,0.858567482,,,
,1.209972272,1.656592873,-3.350542594,-0.278073089,0.439559327,0.844956167,,,
,3.742445726,9.091923476,-6.094494771,-0.208091233,0.405294903,0.875163812,,,
,6.807999113,14.78603534,-6.457177055,-0.31744261,0.490535168,0.858390622,,,
,6.419247249,20.12617388,-7.083878292,-0.426094393,0.460087054,0.837488481,,,
,9.177637962,20.88620239,-6.685271554,-0.371027319,0.447508053,0.856418756,,,
,11.32640158,20.50856591,-5.574650164,-0.388269011,0.484659735,0.83667421,,,
,12.30065902,21.97436384,-5.759830123,-0.378875025,0.436785525,0.842584913,,,
,16.36602376,23.52616273,-6.154139678,-0.370984709,0.453732008,0.842438226,,,
,19.14761926,27.13728653,-7.73091953,-0.388260041,0.470805199,0.828873598,,,
,23.59755327,27.26247781,-9.781249,-0.434126504,0.373601529,0.868595311,,,
,26.9652273,34.36612314,-10.14146757,-0.352017635,0.469177676,0.822602854,,,
,35.69326528,30.82936927,-9.893491432,-0.351988481,0.48154577,0.815630479,,,
,36.55121229,35.79232969,-9.174200216,-0.407169725,0.437722324,0.821466769,,,
,36.43507374,35.58125204,-9.534075007,-0.416508257,0.467956371,0.789091233,,,
,36.95216815,34.99769452,-8.655272341,-0.422722018,0.485047706,0.762060041,,,
,35.29872655,31.88687747,-9.060353502,-0.432106524,0.492874516,0.739746891,,,
,33.19339313,28.63173235,-9.215911543,-0.440735066,0.49988318,0.729074822,,,
,29.9695888,27.55336848,-9.884897065,-0.432024669,0.516103466,0.716470744,,,
,27.91106603,24.79492047,-10.39654838,-0.428067278,0.529216616,0.713296942,,,
,24.63036699,22.38987283,-11.23031656,-0.452470438,0.519289908,0.706060652,,,
,22.38769559,20.22019625,-10.91645028,-0.47291315,0.516317431,0.692529052,,,
,19.64156617,17.6008051,-10.3052762,-0.479223649,0.519403466,0.697342915,,,
,-4.679174425,38.66147314,-26.76961951,-0.331027421,0.792649643,0.73336524,,,
,7.654658847,17.51755433,-16.12641281,-0.564543221,0.457648216,0.776899592,,,
,9.521011569,22.09542982,-14.36800533,-0.476056269,0.539449134,0.697309888,,,
,18.35739587,14.96405333,-13.32797234,-0.479324669,0.493065443,0.726831906,,,
,17.45057557,19.95474491,-11.86280467,-0.520337309,0.444566667,0.733890622,,,
,19.59813597,19.95715133,-8.231971122,-0.509244954,0.478526809,0.719712436,,,
,22.03796215,22.34913553,-6.228280416,-0.478564118,0.480698063,0.73300897,,,
,22.40763452,26.76646824,-6.600187321,-0.469101223,0.494554638,0.732820387,,,
,25.15508174,30.19779789,-7.306758874,-0.462784608,0.5084263,0.731148828,,,
,27.19091538,36.10229985,-8.827503454,-0.466743017,0.503786035,0.737448624,,,
,31.48603619,42.13611839,-9.185773963,-0.466759021,0.489896024,0.738976453,,,
,37.59015666,51.21474925,-11.34485082,-0.463605301,0.508381244,0.743604689,,,
,42.98111655,59.78476547,-13.52031427,-0.447078797,0.502921814,0.746326504,,,
,48.98193272,70.42843054,-16.18365129,-0.452565545,0.499893986,0.735563099,,,
,57.52524911,81.96785783,-19.21677527,-0.465196228,0.4898737,0.743604689,,,
,65.55834658,96.99510841,-23.05427469,-0.432105607,0.503661366,0.742877268,,,
,76.90520276,116.6893867,-30.40973498,-0.402193578,0.515877166,0.752324465,,,
,89.51972805,139.3758798,-41.32532582,-0.358070846,0.524248216,0.747448216,,,
,107.7957639,168.9704104,-55.70438924,-0.372172885,0.539033741,0.724479001,,,
,125.5741286,194.1867986,-68.37592383,-0.375276147,0.565303976,0.715273293,,,
,143.7566578,238.6059247,-85.93278307,-0.365643629,0.600974108,0.658378797,,,
,152.6779544,263.3613683,-100.2409143,-0.65819368,0.821656269,0.86836208,,,
,139.6368621,249.7951601,-107.6689111,-0.65697156,0.836141692,0.709788481,,,
,159.0252955,258.7232177,-110.5709423,-0.749361978,0.72317156,0.470703364,,,
,177.72045,275.0200281,-112.2595635,-1.1265684,0.940469419,0.825637615,,,
,213.5536315,269.2026731,-92.48879535,-1.073624363,0.746010398,0.400408461,,,
,230.9930917,243.04778,-79.88653135,-1.138334455,0.94940316,0.514993782,,,
,217.5973385,221.3256321,-95.38738883,-1.219217431,1.207709582,0.805730581,,,
,198.6623439,185.9242316,-93.28852984,-1.40204159,1.160330071,0.83312579,,,
,186.4347943,131.6773324,-78.70039412,-1.375552396,1.221058002,0.664738736,,,
,151.3177526,66.13485671,-64.17969553,-0.769441998,0.809727421,0.64545107,,,
,116.1461081,-3.832228213,-22.00427223,-0.220685627,0.838722528,1.307714169,,,
,40.6467719,-64.17791937,30.91869339,-1.278897146,2.339917941,1.695456677,,,
,-58.98136405,-103.0553976,64.52541827,-0.131401631,1.19130316,1.015649541,,,
,-109.4808328,-105.6657933,71.84186013,0.038896228,0.718033435,0.793189908,,,
,-121.1592023,-112.2467292,78.04040404,-0.118802752,0.291430581,0.72754577,,,
,-108.6806399,-128.311721,80.48704841,-0.081011213,0.061721611,0.657829969,,,
,-94.39049956,-146.8341287,77.40854618,-0.172400917,0.03267105,0.661411315,,,
,-81.66344536,-170.2620292,73.65991251,-0.267002752,0.09907156,0.718888175,,,
,-84.3305066,-196.1663678,68.76037851,-0.34262528,0.261057085,0.777673904,,,
,-100.7696398,-220.3147627,66.35722163,-0.413471967,0.396907034,0.809093374,,,
,-123.7320693,-242.3318692,67.88707624,-0.481114679,0.461947197,0.797548318,,,
,-141.9807178,-261.3780176,70.6285647,-0.500678899,0.46603578,0.752140265,,,
,-155.1682009,-276.21327,76.660206,-0.526454128,0.45640367,0.668758002,,,
,-157.8329703,-283.2845433,78.25153898,-0.429995719,0.309508053,0.47971366,,,
,-129.077078,-270.209761,74.46428796,-0.358809888,0.129459021,0.306727013,,,
,-93.1289038,-243.5939806,70.91945537,-0.500506422,0.334129154,0.349224363,,,
,-79.03104806,-225.5804167,75.04698603,-0.696077268,0.768851988,0.586176555,,,
,-90.90554107,-212.5482625,83.48573762,-0.730084404,1.002952701,0.714891131,,,
,-99.84373997,-188.6499064,99.43969013,-0.722911621,1.058521713,0.700844546,,,
,-101.8287523,-163.9573735,111.707003,-0.894540979,1.177758002,0.718205403,,,
,-104.621234,-155.3674183,120.1923934,-1.115106932,1.313934353,0.781799898,,,
,-114.1105037,-154.3689248,126.5600744,-1.161501427,1.429735168,0.79241213,,,
,-132.711292,-149.9126309,131.9411221,-1.070648216,1.466850663,0.697134557,,,
,-142.8815793,-139.0231097,137.214683,-0.974351478,1.275811111,0.554646891,,,
,-130.3539144,-129.1540835,143.3135322,-0.974422528,1.109302345,0.527893578,,,
,-117.916605,-121.109928,148.0187189,-0.987908461,1.083009276,0.556133231,,,
,-114.5096834,-111.7341039,153.6370285,-0.961927625,1.069052396,0.55473629,,,
,-116.1428996,-99.20145428,155.2986634,-0.935113761,0.996607543,0.51744893,,,
,-114.3985868,-83.33258601,151.5793652,-0.917821509,0.882487564,0.493511621,,,
,-106.9358689,-70.93337825,144.8342195,-0.950914373,0.827094903,0.481720489,,,
,-99.2813819,-65.28940019,136.9636129,-0.987053313,0.816543731,0.445212232,,,
,-93.7573812,-60.58851067,124.5323195,-1.034076453,0.795441896,0.352186748,,,
,-83.95968831,-55.67087121,109.5386442,-1.120416004,0.722157696,0.219534659,,,
,-65.39946538,-51.41190403,90.44476841,-1.261776656,0.593722426,0.028952497,,,
,-34.24608849,-48.62704266,66.17026551,-1.402998267,0.536362997,-0.19103211,,,
,-4.977628141,-37.65111937,37.0900218,-1.341096228,0.563048726,-0.360293068,,,
,-5.315042987,43.17620868,-9.979320509,-0.845689297,0.727615291,-0.618454638,,,
,-6.194189427,115.3530772,-61.01238484,-0.91378369,0.657960041,-0.503549235,,,
,-3.956731942,151.4156711,-95.20662065,-1.08641998,0.561586137,-0.177212538,,,
,15.4762776,135.39749,-92.28476508,-0.719208665,0.45150999,0.890016412,,,
,-19.2869626,115.6009961,-81.98034831,-0.186909378,0.832331804,1.338801835,,,
,21.00663812,86.12707306,-42.34965977,-0.332923038,0.198272273,1.254606728,,,
,49.42952735,108.9067864,-25.30198812,0.010235168,0.082863609,0.705539857,,,
,70.09198973,129.4801538,-26.48657836,-0.791336493,0.323179307,1.022000102,,,
,65.81778187,95.91794775,-19.61165778,-1.258202854,0.547081142,1.333906626,,,
,63.28055287,63.34609924,-25.2235502,-0.919832416,0.420455148,1.100520489,,,
,65.77738835,54.0540989,-16.68412992,-0.506431193,0.64752579,0.900318145,,,
,44.25508821,65.16632886,-13.411395,-0.174807136,1.508296432,0.855576147,,,
,-12.74401376,45.88097054,-14.32921609,-0.21466473,0.940711009,0.853819266,,,
,-4.159329818,82.76736314,-21.56315203,-0.415026809,0.359961264,0.789623344,,,
,-32.05303523,43.26856948,-21.48912588,-0.727148828,0.675628848,0.986246993,,,
,-33.60861564,32.46814315,-19.6086211,-0.503316412,0.595848726,0.897036697,,,
,-31.20345341,13.57738087,-17.42135472,-0.503544954,0.399839653,0.919977982,,,
,-23.34556643,6.434144152,-13.51435551,-0.438864016,0.422904179,0.889010194,,,
,-16.08533173,5.212999203,-10.9080278,-0.407340673,0.399728338,0.873476962,,,
,-8.789287169,4.554957176,-6.748927165,-0.453027421,0.375199286,0.869029256,,,
,-5.090615418,3.702854343,-4.083756685,-0.389945872,0.413641896,0.852119878,,,
,-4.250315516,2.136559618,-1.872769849,-0.353634149,0.452174312,0.832711723,,,
,-2.577507937,1.613563743,-2.163259451,-0.372567992,0.419827217,0.834634659,,,
,-0.487644379,-0.606074756,-1.225556724,-0.36941264,0.430610907,0.836138532,,,
,-0.174637536,1.324563831,-1.36014451,-0.378873293,0.429083894,0.839460449,,,
,0.941999911,1.927028952,-1.494445817,-0.366244037,0.439872579,0.832197757,,,
,1.277409404,3.00550741,-2.817978324,-0.363085117,0.449890826,0.832145362,,,
,1.343356846,3.73167412,-2.401094232,-0.378875739,0.421376453,0.837890826,,,
,3.496990607,4.35722944,-1.698533384,-0.389927523,0.405964016,0.842776555,,,
,5.273618138,3.818763705,0.84047179,-0.407283588,0.376697655,0.844669623,,,
,9.120915141,3.054552597,2.943971743,-0.400181549,0.378237411,0.839846789,,,
,10.99781029,4.062901021,2.87573247,-0.363072273,0.426026606,0.819661162,,,
,8.616024732,3.098383869,1.037282792,-0.353570642,0.45380581,0.80939368,,,
,8.069136516,2.535280948,-0.774524347,-0.346459021,0.456900102,0.801464424,,,
,6.730420628,2.658810648,-1.873056328,-0.352011213,0.435289093,0.809321916,,,
,7.651335692,3.520138102,-1.906115993,-0.356763609,0.418315596,0.814060958,,,
,9.521183456,3.879726414,0.024751777,-0.37252212,0.398321509,0.810494495,,,
,12.82984284,2.242900585,3.399759669,-0.393751886,0.369158308,0.788379001,,,
,18.77754582,2.559918133,6.107959279,-0.39452528,0.390752192,0.789993578,,,
,21.25169217,-0.8742763,9.051243473,-0.378776249,0.480069317,0.819347604,,,
,21.26813606,-4.079001135,10.82867314,-0.381930683,0.50934791,0.830359429,,,
,15.20973763,-5.974059042,8.108556012,-0.388240265,0.506272069,0.832829256,,,
,9.265586984,-4.561603486,5.412789586,-0.345662895,0.510838328,0.815543629,,,
,4.757612348,-5.063629106,3.442731504,-0.366192864,0.468450663,0.822147299,,,
,3.186390186,-4.932536363,0.902179344,-0.367781549,0.462272681,0.825280734,,,
,2.662534874,-3.239331486,-0.378667807,-0.358332212,0.45530897,0.823497044,,,
,3.570214613,-2.293779237,-1.027198735,-0.367773904,0.446875433,0.817477166,,,
,5.608569265,-0.628935772,-1.244979993,-0.352041998,0.442949235,0.82332946,,,
,5.994914706,0.551758357,-2.51597227,-0.334695107,0.46141682,0.821415392,,,
,7.524654723,3.079934628,-2.938184869,-0.336268196,0.461424363,0.820674006,,,
,8.01464823,4.716015612,-4.307152929,-0.327600917,0.470649235,0.822049134,,,
,8.816216185,7.77177142,-5.867431597,-0.333141692,0.455217839,0.827586442,,,
,10.65844738,9.903632785,-5.877630246,-0.336316514,0.445947197,0.833859327,,,
,14.70943088,14.74472508,-5.372052287,-0.358375127,0.44138053,0.835130581,,,
,18.40672753,18.2755202,-4.419796432,-0.369417533,0.432144648,0.838473598,,,
,30.4446854,15.35372192,-5.209561456,-0.403568502,0.311654027,0.907420897,,,
,36.56089527,25.21415369,-4.992467748,-0.243211825,0.529891539,0.795366769,,,
,44.26786517,33.37416131,-3.948424054,-0.378927523,0.421302446,0.857324975,,,
,50.49752068,41.63346252,-4.570541628,-0.366302345,0.432085219,0.851616922,,,
,57.36997755,51.13023798,-6.354503018,-0.369387768,0.459921814,0.836195311,,,
,64.83939914,60.03847118,-8.859130724,-0.341034455,0.459839144,0.835548726,,,
,74.7595904,70.34437764,-13.7331108,-0.329969827,0.482973904,0.828345872,,,
,84.83109982,81.75746773,-17.26241623,-0.357008767,0.446470438,0.915173802,,,
,98.07731109,96.39894582,-24.64348773,-0.241871254,0.343884608,0.823733028,,,
,103.5408074,109.9546116,-34.06062205,-0.3156316,0.529387564,0.782247706,,,
,119.0153089,130.4266228,-38.98754342,-0.366172987,0.472330989,0.815935882,,,
,133.0892723,146.8129866,-45.9195306,-0.295178593,0.520048114,0.787981651,,,
,144.9217675,163.8855819,-54.20822455,-0.358306626,0.529304281,0.837633129,,,
,168.7155015,192.452971,-66.26824129,-0.228914271,0.513844444,0.744483282,,,
,195.9366117,230.4564595,-82.82465892,-0.253966667,0.515673598,0.689090724,,,
,228.2650105,268.3846612,-103.0985413,-0.348301733,0.713423751,0.688519164,,,
,250.2496876,296.9641398,-104.7344504,-0.816358614,1.027246483,0.884807645,,,
,244.2420532,292.3835141,-112.1251476,-0.604257288,0.829333231,0.431068705,,,
,257.7715348,257.8801676,-85.81080036,-1.894243935,1.347136086,1.183626198,,,
,267.630305,206.5711095,-67.60283188,-0.999438022,0.730604689,0.336501019,,,
,266.8878663,163.3647632,-54.04613479,-1.460267584,1.328527727,0.867430071,,,
,257.6129974,119.8031258,-69.30881372,-0.938658716,1.241041692,0.74420948,,,
,239.206499,101.568171,-81.08372666,-0.812704689,1.11809368,0.724773394,,,
,221.1179349,78.14256241,-84.86662321,-0.776264628,0.96651947,0.596164832,,,
,170.4940771,38.83232916,-86.89833155,-0.301411111,0.702749745,0.82112895,,,
,108.4045316,7.635292874,-55.29185962,-0.432496738,1.315108767,1.150237513,,,
,-15.80229058,-78.2811609,-9.199754133,-0.837655759,2.02611998,1.513771458,,,
,-87.082251,-102.7263479,29.45570295,0.051222222,0.968755148,0.976848114,,,
,-129.1945916,-100.7939332,49.17977505,0.06091947,0.605448318,0.767593068,,,
,-132.8611778,-104.7726667,65.06268079,0.049872477,0.171713354,0.636405505,,,
,-120.9020589,-105.055937,73.70248327,0.027850051,0.041622426,0.583795005,,,
,-109.886888,-116.2137171,77.84221793,-0.126722528,0.074137003,0.674442915,,,
,-110.6591205,-138.6928568,80.19587126,-0.259247706,0.217518247,0.80211682,,,
,-130.1308047,-163.5229569,78.56861383,-0.327869113,0.369343323,0.890261468,,,
,-158.5385678,-186.7864757,77.13432858,-0.388542304,0.450371662,0.928337513,,,
,-186.7434466,-207.1718557,74.89647002,-0.438919878,0.449788583,0.918602446,,,
,-205.708235,-228.5184297,72.25954636,-0.484539857,0.384523547,0.875984608,,,
,-210.1947811,-248.8462847,66.33338659,-0.519094292,0.336231295,0.823819878,,,
,-205.1017019,-267.0660561,58.95283075,-0.465235882,0.240976555,0.67860051,,,
,-171.2562828,-262.0692912,41.59203767,-0.338884506,0.025377064,0.480189602,,,
,-123.1125874,-235.9660789,24.37838015,-0.497918756,0.207740571,0.519929256,,,
,-101.8746462,-219.9103691,8.737835559,-0.674571967,0.621629562,0.743972171,,,
,-94.69244832,-215.033295,-0.719520399,-0.782143221,0.878601529,1.001112538,,,
,-82.10743035,-221.3778859,4.828372635,-0.858117125,1.199559021,1.242888685,,,
,-81.21579343,-230.0686243,34.57880508,-1.011983486,1.481152294,1.148227625,,,
,-81.51252827,-219.0463487,61.55090787,-0.885125688,1.518198063,0.840696942,,,
,-78.72004657,-194.7051535,74.69284082,-0.932038022,1.58122844,0.733064526,,,
,-85.40136472,-186.0902747,90.27007358,-1.097382059,1.733551886,0.766670642,,,
,-97.83666881,-186.3255312,115.9618449,-1.078354332,1.739839144,0.721164322,,,
,-102.1343679,-183.7197764,140.7443322,-1.00739001,1.584126809,0.639177268,,,
,-97.22228617,-179.0031306,162.074806,-1.064142712,1.371594597,0.589529052,,,
,-85.97804674,-178.5616093,185.6229704,-1.226501733,1.109965647,0.552297757,,,
,-85.20844983,-167.5757738,203.2525952,-1.186649643,1.110525586,0.374160449,,,
,-112.1388413,-114.0302896,191.9337567,-1.162109072,1.103285933,0.028454842,,,
,-130.631799,-71.38034262,168.8955821,-1.562960754,1.007786239,-0.30150632,,,
,-118.7464771,-48.30423824,123.6952281,-1.949301835,0.75710051,-0.807000102,,,
,-69.86870807,-13.39082581,60.88690709,-1.658739857,0.426792355,-1.192827829,,,
,-21.33654722,60.54903387,-5.017104933,-1.131231804,0.46351998,-1.125495413,,,
,-14.74254784,145.0542353,-50.89887762,-1.021703058,0.878168705,-0.719085831,,,
,-43.45655693,207.6565207,-83.3557908,-1.14309317,0.897281448,-0.376590316,,,
,-31.08731487,196.5370142,-74.94614546,-1.009901835,0.447218145,0.626126707,,,
,-2.672848114,130.3694989,-23.16915273,-0.951681753,0.191300612,1.749086239,,,
,2.58507098,109.1989376,-2.130715449,-0.155369725,0.130096738,1.395007543,,,
,27.98715483,143.4194148,-16.36940421,-0.617427931,-0.318517227,0.868310296,,,
,73.5880063,137.8895127,-18.14580255,-1.087137105,0.050669011,1.1113842,,,
,82.0036104,97.24176674,-7.767073167,-1.203702752,0.453156677,1.243865341,,,
,73.81684565,75.4968152,-5.860556103,-0.556850968,0.694647503,0.921770336,,,
,71.17218706,75.09116108,6.06097674,-0.290359837,0.654217839,0.795907645,,,
,69.50075458,87.65858925,11.87707132,-0.388007238,1.070540571,0.926429867,,,
,-5.416341925,52.30990078,-14.46168393,-0.908677676,0.659431804,1.128717533,,,
,1.945077123,63.13880311,-18.85867664,-0.695616106,0.778042406,1.007493578,,,
,-34.50466434,22.58886107,-21.10088968,-0.385064526,0.480105403,0.814827115,,,
,-29.28971708,17.60693575,-18.43869858,-0.394690214,0.581576962,0.913188073,,,
,-24.53067234,13.51882458,-18.35728128,-0.387559939,0.526147095,0.879492049,,,
,-21.54596329,10.32951231,-15.8251516,-0.416705607,0.435317431,0.852772375,,,
,-15.19541368,4.373616033,-11.82040579,-0.465550561,0.443143527,0.861674516,,,
,-11.98616248,3.894279542,-8.649370875,-0.410432824,0.412147095,0.855693374,,,
,-7.987318143,3.026592257,-6.49430472,-0.37419052,0.427468298,0.854897044,,,
,-6.231947346,2.257969375,-4.879996133,-0.40410999,0.426027625,0.851689704,,,
,-3.349969637,0.841388522,-2.640304112,-0.418267788,0.406835678,0.838760449,,,
,0.133155392,1.529453538,-1.303307097,-0.384386544,0.416773293,0.835675433,,,
,1.360774763,2.24880205,-0.920571289,-0.365450255,0.439879205,0.829847706,,,
,-0.294958673,2.714788625,-2.533161004,-0.366222936,0.447606728,0.826771152,,,
,-0.195836974,3.97019645,-3.088758178,-0.366243017,0.433710703,0.829853721,,,
,1.530771341,3.505241199,-3.120385448,-0.37412946,0.421392253,0.830009378,,,
,1.559476527,1.930982361,-1.332871719,-0.388339755,0.401355046,0.836512742,,,
,3.512918834,1.251626303,-0.02606958,-0.393066157,0.390581957,0.833490112,,,
,5.462121253,0.112643503,1.27706563,-0.381238736,0.396730071,0.830123242,,,
,5.818329114,1.329777747,1.1892312,-0.359143425,0.427543017,0.823461162,,,
,4.808204521,1.117611475,-0.881209089,-0.353575025,0.458422018,0.81251213,,,
,3.256634812,0.170111169,-2.092327276,-0.364608563,0.449969419,0.812747095,,,
,2.534364215,-0.604871544,-2.571434585,-0.380379409,0.427646483,0.813062997,,,
,3.460951561,-0.34251417,-2.198152581,-0.385147401,0.404487462,0.821676962,,,
,4.41085829,-0.191654382,-0.486899534,-0.39148053,0.402918756,0.833478084,,,
,4.629957351,0.140661139,0.393736597,-0.388293476,0.416829154,0.824104791,,,
,4.831180129,-1.021526453,0.74748074,-0.369359633,0.434538634,0.817489195,,,
,3.909462924,-0.574905852,0.275248925,-0.36463629,0.436832926,0.818940673,,,
,4.812501704,-1.909439148,0.02091296,-0.369354332,0.440709378,0.817501121,,,
,3.575084754,-1.934420108,-0.871869877,-0.348880428,0.441415087,0.818590418,,,
,3.052833724,0.316731069,-2.250406332,-0.349678186,0.436780428,0.820931498,,,
,3.986640339,2.105791784,-1.865607877,-0.339485219,0.424358919,0.833889297,,,
,5.592698334,4.894778444,-3.724798626,-0.339490724,0.422810296,0.835441081,,,
,6.213039739,6.422169334,-3.653236198,-0.340302345,0.421237411,0.844007034,,,
,7.547515739,9.019902681,-3.561219176,-0.356800204,0.433671356,0.832747604,,,
,8.975269269,10.28568104,-3.685092651,-0.372549235,0.43218053,0.831549134,,,
,9.88455329,12.09519635,-4.32709186,-0.355191233,0.44912314,0.824967992,,,
,12.67978519,14.55725329,-5.092792658,-0.359934964,0.439866055,0.828944648,,,
,15.70557531,17.106629,-4.621133801,-0.369461978,0.421295617,0.85166789,,,
,18.59219397,22.56634383,-3.973003943,-0.378911723,0.422865851,0.85188634,,,
,24.9045273,25.58405524,-4.531637793,-0.407310601,0.393607951,0.860249847,,,
,37.38377726,35.81616473,-6.142967,-0.297165953,0.36384261,0.892659939,,,
,46.28433283,42.57099336,-7.607676308,-0.363267278,0.384146483,0.879437615,,,
,54.33118129,53.33079698,-9.623399127,-0.385285321,0.385800714,0.867505607,,,
,65.83193393,62.40026051,-11.50275799,-0.404215087,0.382734964,0.877259123,,,
,73.96890865,74.50972351,-13.92304631,-0.274962793,0.470309072,0.869819776,,,
,87.71273376,95.23618527,-19.07806218,-0.331802141,0.397096432,0.897401325,,,
,98.36482131,106.4701115,-28.35831689,-0.278192151,0.445552497,0.89160999,,,
,115.9528495,125.0466637,-38.51095713,-0.317469113,0.451977064,0.855983792,,,
,135.7282586,143.8932509,-46.06534836,-0.306398267,0.443534149,0.836281753,,,
,156.0674582,168.9799215,-57.57269002,-0.270122936,0.492800306,0.833996534,,,
,171.1028447,200.1650976,-76.61585907,-0.169172987,0.567433028,0.80385739,,,
,191.8473547,233.4029522,-96.38937742,-0.191277574,0.496545872,0.801113354,,,
,222.2564021,288.0119607,-125.6283304,-0.148465341,0.57540632,0.719449949,,,
,262.4788414,342.9431434,-142.558202,-0.521809888,0.779843629,0.802984913,,,
,262.8924597,347.7122149,-143.414602,-1.200644852,1.224132722,0.934375127,,,
,250.9249183,327.8041661,-126.9104954,-1.421380938,1.113536697,0.982721305,,,
,290.4185554,232.0913945,-85.69924547,-1.492982875,1.142705505,0.671926606,,,
,256.9139316,189.7947334,-88.96940209,-1.691942712,1.510841998,0.977230173,,,
,223.8522614,134.2587364,-106.7051388,-1.095063099,1.578274516,1.029049337,,,
,194.9897417,102.4407858,-98.05336145,-1.088769725,1.379481346,0.967885423,,,
,136.841802,21.33574508,-75.3895575,-0.164984913,0.525463812,1.287952599,,,
,123.3606208,-11.43600841,-40.38865442,-0.86766106,1.414396738,1.346910805,,,
,12.79248599,-100.8906485,8.943641999,-0.291026606,1.511495821,1.321517125,,,
,-25.93797127,-89.61999567,34.97340111,0.568279817,0.713583588,0.734472477,,,
,-55.58326596,-63.33612977,50.96471047,0.365926198,0.470037411,0.639111723,,,
,-57.13260113,-59.06071871,68.70646319,0.238900917,0.19813578,0.638366259,,,
,-51.47275215,-68.56849495,79.46792838,0.071744852,0.183718247,0.707444139,,,
,-50.15959017,-92.60493389,87.64518203,-0.076480938,0.250948522,0.79179684,,,
,-62.63351163,-118.0270713,90.73583097,-0.141905199,0.377407849,0.854167176,,,
,-84.94884265,-143.5631126,92.20082676,-0.237243935,0.496270642,0.909431498,,,
,-115.119998,-170.502385,95.13786571,-0.338100714,0.560443527,0.949168094,,,
,-142.0270128,-197.1826803,98.63015807,-0.410553109,0.562974516,0.949270133,,,
,-163.0958168,-222.796644,104.2678336,-0.49396055,0.549460958,0.917720387,,,
,-176.6358409,-247.4628208,110.2182295,-0.526882977,0.526668603,0.852353823,,,
,-183.6058724,-264.7397902,112.1959652,-0.518818451,0.451415392,0.757189093,,,
,-174.2494716,-272.1862935,109.5259819,-0.453907543,0.252931804,0.568762997,,,
,-134.8703689,-258.6920488,102.2954264,-0.464042813,0.10673262,0.483202243,,,
,-98.12698653,-237.4955897,88.2334951,-0.625538226,0.353676555,0.580646381,,,
,-87.14567743,-219.7004947,66.90032833,-0.751892864,0.655556677,0.807987258,,,
,-87.03864891,-211.6946127,50.43088569,-0.955550357,0.851946687,1.047766667,,,
,-85.84328706,-217.6246686,47.75580304,-1.15103843,1.079549032,1.187146075,,,
,-91.10263855,-222.6847453,46.3730267,-1.146806728,1.271787564,1.138454434,,,
,-100.8253313,-214.8441617,44.97644207,-1.130684608,1.464101223,1.060730887,,,
,-113.9445178,-212.2781702,58.61449917,-1.200468807,1.631157492,0.998908359,,,
,-125.4778144,-212.1562448,84.32179764,-1.152819164,1.65161315,0.856389093,,,
,-131.0177434,-205.5553126,115.765435,-1.198087564,1.556804383,0.672232416,,,
,-134.7625382,-192.7417991,144.0925829,-1.210158818,1.474394597,0.446922426,,,
,-143.1620422,-164.9657792,161.6225705,-1.211181753,1.422800306,0.222975433,,,
,-150.6190879,-125.4976961,171.8494087,-1.24530367,1.313493272,-0.011212436,,,
,-152.9325196,-74.66373457,174.3693344,-1.342272579,1.156833945,-0.31946055,,,
,-139.3554252,-32.08936075,174.2814427,-1.748100306,0.890731091,-0.609998777,,,
,-104.1111869,-1.592937262,161.2963283,-2.085607238,0.804774414,-1.06498002,,,
,-70.81110906,59.47634229,107.5343233,-1.761692049,0.621908869,-1.507246891,,,
,-30.03490599,153.9957001,28.52155256,-1.468812334,0.444483486,-1.531372579,,,
,4.863781427,228.8257643,-48.55760018,-1.426250866,0.215651784,-1.025975637,,,
,46.43106732,213.3457052,-72.66932578,-1.133088787,0.372386239,0.72595423,,,
,25.15943622,143.588552,-56.95578636,-1.119543731,0.490970234,2.184137309,,,
,18.18482098,108.2898254,-33.77299723,-0.311167584,0.423512232,1.438000102,,,
,47.37180673,157.5322821,-30.6239639,-0.564237207,0.085623445,0.838350357,,,
,81.56220371,137.2987359,-3.863110638,-1.252354842,0.415033843,1.165612946,,,
,79.28618617,98.67055159,5.616075012,-0.984337717,0.482385933,1.092784404,,,
,81.14686661,80.82876044,4.511355087,-0.496859123,0.706992049,0.87378736,,,
,-4.375334907,72.14759041,-5.645525043,-1.043910296,1.429022732,1.291103772,,,
,7.068121952,68.3030436,-9.074562855,-0.640676555,0.176692457,0.885356065,,,
,-16.45947317,11.29826935,-1.416294374,-0.905389602,0.490130275,1.022595107,,,
,0.421696937,11.62519907,0.597766868,-0.475823751,0.621857798,0.932217737,,,
,-1.447463278,3.223918922,0.545856891,-0.430924159,0.473819164,0.881155556,,,
,1.190606298,0.790796349,1.333158198,-0.370976147,0.507672477,0.856535372,,,
,0.114591559,1.511348072,-1.713029216,-0.306336493,0.526055657,0.839551172,,,
,-2.061444851,2.107969024,-4.156350437,-0.325235474,0.486054332,0.825911927,,,
,-4.625430984,2.023285862,-5.682996483,-0.383577064,0.435292049,0.833361264,,,
,-3.526784412,3.810570408,-7.041364823,-0.370943731,0.463035474,0.830018247,,,
,-4.030414314,5.239183374,-6.985214959,-0.352790214,0.489231906,0.823437105,,,
,-3.502491002,6.634965859,-6.298123971,-0.364583894,0.483902446,0.814367686,,,
,-2.251265769,7.127079309,-4.994988762,-0.356764934,0.446048318,0.823443221,,,
,-1.205216722,6.968656479,-3.386467048,-0.356779715,0.467598471,0.835922834,,,
,-0.707087215,6.751448179,-3.741528994,-0.340998573,0.477609582,0.82780948,,,
,-1.453708518,5.536949541,-5.252246812,-0.344137105,0.474554128,0.822433741,,,
,-1.338658593,3.28556918,-3.98159831,-0.363039042,0.467676045,0.820519266,,,
,-0.295531631,2.815686493,-2.583523994,-0.37094159,0.446089602,0.823766463,,,
,0.854337368,1.446202771,-0.675345353,-0.396162181,0.425336901,0.824300815,,,
,3.437689475,-0.162834605,1.969313238,-0.389859021,0.418388277,0.821034251,,,
,4.396419754,-0.982450731,1.976188731,-0.366203364,0.441471458,0.817430785,,,
,3.79968421,-0.073739668,0.021772396,-0.34093843,0.475384302,0.804483996,,,
,3.169201452,-0.204259454,-0.964918223,-0.331475331,0.484618858,0.802731702,,,
,1.723628935,-0.488732999,-2.067747387,-0.320454434,0.483038124,0.804032008,,,
,0.39069992,0.048414934,-2.957149772,-0.324431702,0.466044546,0.813417227,,,
,1.339976395,-0.004469071,-1.349372903,-0.366212334,0.440688277,0.820538736,,,
,3.694145384,-2.20943985,0.055347723,-0.378817227,0.441490418,0.822382365,,,
,6.775684294,-4.946058166,2.49356962,-0.38038002,0.441512844,0.817754128,,,
,10.05856057,-6.069972177,4.432917165,-0.372493578,0.453831295,0.817598369,,,
,7.904124671,-5.891438528,3.42703246,-0.350437513,0.467639348,0.820231906,,,
,6.059773529,-4.492848551,2.332224705,-0.344124363,0.467638736,0.815423955,,,
,6.346768088,-4.475889,1.255980783,-0.352028644,0.453753823,0.821795617,,,
,7.781798182,-2.99994972,1.440702376,-0.341027421,0.458308359,0.83243629,,,
,7.999350257,-2.470479421,2.116620687,-0.339434557,0.464492253,0.827748114,,,
,8.084033419,-0.879261032,0.845284635,-0.344139653,0.469157696,0.821645872,,,
,8.376528373,-0.653171886,-0.024751777,-0.344176656,0.447533537,0.828600306,,,
,9.507317878,1.538047905,0.162605422,-0.334703568,0.466027013,0.826088583,,,
,8.502407201,4.390117218,0.117800123,-0.307909072,0.470594801,0.820822732,,,
,9.310736058,7.607676308,-1.132966744,-0.309515291,0.45360632,0.827044648,,,
,12.4421223,11.04754302,-3.171607875,-0.309533333,0.45666208,0.834824261,,,
,15.94575921,17.52099208,-2.610682194,-0.330845872,0.439707136,0.847714169,,,
,20.52122828,22.88972121,-1.476569534,-0.36630897,0.424371865,0.851602039,,,
,29.06414359,24.69299128,0.194519171,-0.406656575,0.353353925,0.897467686,,,
,40.90678015,25.44001365,-2.2576256,-0.364010703,0.416568705,0.873299388,,,
,40.15316876,46.20291553,-4.321591466,-0.289138838,0.456483996,0.865451988,,,
,52.26956455,48.16581164,-8.712338937,-0.274813863,0.5213684,0.830272783,,,
,57.46044758,59.73165228,-14.51932349,-0.278054536,0.485810194,0.85281947,,,
,69.3416442,68.28384952,-20.04590249,-0.309478593,0.496801325,0.827128338,,,
,82.7666183,80.2061272,-23.41884774,-0.374159531,0.459099083,0.853403568,,,
,85.5753147,97.51036935,-36.0663181,-0.218499592,0.415097655,0.942270133,,,
,111.4874456,112.8037015,-39.63830889,-0.279569827,0.566022222,0.856120285,,,
,125.3712443,136.7610723,-48.78563738,-0.241843629,0.464107034,0.851951376,,,
,143.1812363,160.6659028,-59.4097073,-0.249661264,0.488866157,0.838186239,,,
,161.1931959,187.4870885,-66.201549,-0.300248012,0.514948624,0.9155684,,,
,194.0970161,224.7579358,-82.39167471,-0.150245362,0.465720897,0.761251274,,,
,229.3880078,267.7250149,-103.9368932,-0.22108002,0.489109072,0.75202946,,,
,266.7494397,316.1315261,-124.1601261,-0.343716718,0.706275637,0.738926707,,,
,286.3204747,338.825926,-117.5298012,-0.972419572,1.06451213,0.944405912,,,
,279.7783853,342.8998851,-118.4715719,-0.846455861,1.000485117,0.64447105,,,
,275.6554383,237.9773327,-84.12429909,-1.902787564,1.260633537,0.815200102,,,
,316.0273624,203.3418621,-60.25482005,-1.350777472,1.483437717,0.613384098,,,
,268.7712358,144.5793106,-77.87923101,-1.246003262,1.418096942,0.876712232,,,
,244.1400094,113.4891882,-103.1288508,-0.73423945,1.366284811,0.913137309,,,
,215.9496837,104.5661727,-105.2390543,-0.768835168,1.193898675,0.836633639,,,
,145.9795048,44.7846158,-96.88183465,-0.075531804,0.644496738,1.153223751,,,
,100.0406083,7.265505913,-62.94989892,-0.99366055,1.803069317,1.468697452,,,
,-35.42248543,-101.3507909,-8.969367804,-0.571572171,1.686191641,1.444853823,,,
,-81.14033489,-117.9657075,25.47937585,0.330141284,0.767796942,0.864379715,,,
,-111.2809516,-108.6260371,42.04037715,0.2501316,0.438761672,0.638581142,,,
,-108.0031173,-106.0291058,55.55759745,0.237586544,0.115309174,0.513862283,,,
,-97.47811183,-101.6026058,59.74970045,0.171440061,0.080079511,0.499754842,,,
,-93.18241805,-108.8058312,62.49588717,0.005860245,0.178908155,0.604775433,,,
,-103.261204,-126.9579363,63.67967527,-0.132931091,0.382448624,0.738928542,,,
,-127.2971273,-152.9073667,68.05678634,-0.274104587,0.585197961,0.880130275,,,
,-162.0093743,-185.0450278,76.91345335,-0.404118858,0.707982875,0.945520693,,,
,-196.1051759,-215.0672714,88.50553546,-0.448122936,0.688225178,0.902177778,,,
,-214.7404563,-238.0538225,98.81373374,-0.456551886,0.574565647,0.777775637,,,
,-219.0854818,-254.3483411,104.8470366,-0.469773496,0.493951274,0.689304383,,,
,-213.980084,-263.8718164,103.6565449,-0.452224261,0.424111315,0.583051478,,,
,-191.991339,-263.0544921,94.74206647,-0.345604485,0.232391947,0.408456881,,,
,-143.7173529,-236.3881196,81.26753152,-0.396765647,0.219490418,0.39327421,,,
,-112.1499567,-208.4414729,65.86264447,-0.592248012,0.638931498,0.592105607,,,
,-101.4234992,-194.0131351,52.52848418,-0.82444526,0.954550459,0.940817023,,,
,-96.23593933,-204.4566087,57.39427096,-1.133543629,1.27696157,1.187133639,,,
,-100.4913542,-212.0041245,69.83478897,-1.05206208,1.492951784,1.119626198,,,
,-108.1224644,-195.6048692,72.17996252,-0.986249337,1.675208869,1.010434455,,,
,-108.7187416,-192.1998383,82.65615203,-1.246049337,1.683050153,0.979061366,,,
,-107.1301015,-206.7019157,96.09791379,-1.308746993,1.709099286,0.87249368,,,
,-107.3526384,-215.0094027,109.1343652,-1.210705708,1.649265749,0.708458002,,,
,-103.5551887,-214.4245847,121.676927,-1.256182977,1.44013894,0.5660579,,,
,-92.73453694,-211.6314154,134.0222194,-1.287495107,1.212464526,0.421743833,,,
,-86.47600436,-196.001757,144.1510246,-1.336015596,1.105193374,0.271839246,,,
,-90.2127778,-164.0972325,149.0241453,-1.348055657,1.035154536,0.038779511,,,
,-101.1765544,-121.1157721,146.1945932,-1.60216106,1.031269011,-0.360420591,,,
,-104.9777856,-81.80284599,120.70605,-1.841747197,0.997015291,-0.898374924,,,
,-69.0442791,-43.19677787,80.37469139,-1.698950051,0.56629103,-1.131006728,,,
,-2.394791696,3.224377288,39.42694476,-1.231119266,0.287227625,-0.935450765,,,
,20.68950598,101.0937047,-4.357974286,-0.623432416,0.71563476,-0.685731193,,,
,-1.734171359,183.400066,-36.24800302,-0.718676045,1.05461213,-0.299675637,,,
,-47.22770784,227.6728586,-47.86970705,-1.037723751,1.185279103,0.07241896,,,
,-63.47914004,212.3245225,-34.75940137,-0.847324057,0.519283588,0.816114883,,,
,-67.35857997,177.3575958,5.371823104,-0.436170948,0.810525688,1.185090622,,,
,-19.41129444,145.4163446,26.63285449,-0.433132518,-0.259677472,1.475200408,,,
,0.457965166,147.202827,8.736746939,-0.321918451,-0.694689093,0.975880734,,,
,53.37422718,165.4958224,-27.0888143,-1.19306106,-0.538164322,1.069893782,,,
,68.77894235,112.7500154,-36.49655211,-1.818422222,0.210930989,1.328919878,,,
,73.3789913,64.80399035,-16.61778141,-0.908388481,0.741507441,1.046475229,,,
,67.33394279,68.14714179,5.141379479,-0.200326096,0.873105505,0.77096371,,,
,-8.23403377,93.24704769,-11.41687162,-0.826773191,1.3987737,1.366158512,,,
,-6.062810205,66.53976599,-14.33695102,-0.381383588,0.002076351,0.757840265,,,
,-8.143563734,31.92165601,-2.55235509,-1.069310703,0.784756269,1.159054128,,,
,-4.463169337,19.02907429,-0.863160918,-0.358983588,0.557199185,0.805055556,,,
,-10.74559426,6.017431948,-2.341621213,-0.374114577,0.458392864,0.836300102,,,
,-8.94960076,3.850161792,-3.097696319,-0.370877982,0.56482263,0.837989195,,,
,-9.402810376,2.350960425,-5.535402555,-0.389072681,0.504669521,0.849168807,,,
,-8.405634629,1.853690355,-6.61038597,-0.369418451,0.452944241,0.845510194,,,
,-6.24140115,4.463513111,-5.895105458,-0.356850866,0.422813456,0.848274006,,,
,-1.98529876,3.751383868,-3.884367372,-0.416718552,0.415268502,0.851178797,,,
,-1.209800384,1.503212071,-2.34694972,-0.396194699,0.45533629,0.846125382,,,
,-0.309511801,1.557413879,-0.483920154,-0.39777054,0.439931804,0.841467176,,,
,2.598936559,1.059800034,0.270722558,-0.382010194,0.435275637,0.836434862,,,
,2.40166719,2.186865312,0.533996665,-0.348888685,0.470678695,0.831085015,,,
,1.919981571,2.404531979,-0.705425637,-0.336261264,0.476842202,0.823035984,,,
,1.349258312,3.298288843,-1.529338947,-0.336246585,0.472240877,0.816030683,,,
,1.298035885,3.195099145,-1.633674561,-0.356736086,0.450711825,0.814123751,,,
,3.510283228,1.758980431,-0.072651048,-0.375687258,0.419880836,0.823046075,,,
,5.835517848,1.357738087,2.013373692,-0.388282161,0.410682161,0.817873904,,,
,6.820145819,0.074140739,3.456883561,-0.378806626,0.419934353,0.81145739,,,
,9.265873463,-0.576911204,4.153829423,-0.349622732,0.446104587,0.803070031,,,
,10.66618231,-1.017286565,3.294793801,-0.318061876,0.464584098,0.786840163,,,
,13.39460733,-2.871664469,2.958868646,-0.309404893,0.486120897,0.796012844,,,
,13.28866744,-4.447527589,2.999434058,-0.337811417,0.501535576,0.821565036,,,
,5.616476083,-3.136485562,0.074713696,-0.328386239,0.495307747,0.829111213,,,
,0.703649468,-2.97279152,-1.792383871,-0.329975841,0.478342915,0.829114169,,,
,-0.658672281,-1.21976985,-4.626462308,-0.356785423,0.441396636,0.829653109,,,
,-0.251413881,-2.180963847,-4.371324202,-0.359156269,0.436769521,0.831252803,,,
,0.986461436,-0.587339036,-3.775218912,-0.364646381,0.446833741,0.825956371,,,
,1.68650127,0.00148969,-4.428963756,-0.359888175,0.45842263,0.81731998,,,
,0.210218215,0.862874439,-4.75079415,-0.361456575,0.461518451,0.815807136,,,
,0.759054487,1.448895672,-5.459944013,-0.347285933,0.456846177,0.816252294,,,
,2.392786344,2.915495741,-5.580895403,-0.347321713,0.453713456,0.8286842,,,
,3.409614543,3.718381499,-5.818558297,-0.339461672,0.452127115,0.833943119,,,
,5.017620595,7.019764314,-7.57072053,-0.328404077,0.462154944,0.825160041,,,
,5.396460289,8.0326964,-9.358176964,-0.326838124,0.453662691,0.825885117,,,
,7.461457479,10.14393128,-8.337567243,-0.32450316,0.442830377,0.832806524,,,
,11.64055434,11.45835376,-8.116692013,-0.309550765,0.445851478,0.837912844,,,
,15.57511282,17.81640912,-6.315828367,-0.344270336,0.427369215,0.857323955,,,
,19.89229251,23.38475675,-5.337732115,-0.371042813,0.4243737,0.854819266,,,
,28.05562328,27.47510245,-5.555971739,-0.423201529,0.351853517,0.899396534,,,
,44.21400713,34.4209552,-5.850701229,-0.15344475,0.539618858,0.803444444,,,
,54.24815971,47.19344497,-7.10100973,-0.37746371,0.394945056,0.890664934,,,
,60.69731535,61.7447395,-8.393086854,-0.336446075,0.410323547,0.871104077,,,
,73.6994466,69.51874545,-10.87599946,-0.35371947,0.444348522,0.862236595,,,
,86.31133629,82.31501296,-13.94682406,-0.345821509,0.445897859,0.85428634,,,
,93.55054344,96.49457248,-22.13204182,-0.267065851,0.343969929,0.821198369,,,
,108.6886613,112.0378861,-26.77821388,-0.325414781,0.496583792,0.896673089,,,
,129.4519643,133.0221216,-35.94937742,-0.284251682,0.485976453,0.814094903,,,
,144.0799779,152.1093511,-44.54918744,-0.292957288,0.470533435,0.825145668,,,
,161.644572,178.7568733,-55.31093912,-0.257457288,0.524441794,0.81977788,,,
,182.7731356,206.5678436,-64.21922962,-0.259192661,0.491860652,0.869502446,,,
,219.8990245,250.7726834,-84.61538121,-0.094984302,0.484235168,0.717274822,,,
,262.5816874,305.4400191,-110.792677,-0.206798573,0.612482059,0.751945362,,,
,287.4305232,351.7680686,-126.0377088,-0.5580158,0.963338634,0.853918349,,,
,276.6987945,335.2809788,-123.0496193,-0.790444343,1.001995005,0.608994699,,,
,276.829658,308.1214615,-96.65024511,-2.119466769,1.554301325,1.244356473,,,
,311.6373025,242.5239246,-67.92924594,-1.209232212,0.920313558,0.512666667,,,
,280.5785209,180.3490657,-66.469063,-1.514141998,1.456116514,1.029036799,,,
,261.1070086,142.8133974,-90.26480237,-0.876043731,1.405164322,0.942875433,,,
,239.5067289,120.7540639,-92.65581254,-0.76111947,1.207514271,0.901002243,,,
,181.1482273,81.87750239,-100.0396915,-0.314285321,0.820268807,0.961570846,,,
,137.4350425,50.25917024,-76.23593076,-0.333789704,1.115299083,1.282850459,,,
,8.155595847,-76.07355452,-19.06843649,-1.016413761,2.167304587,1.849263201,,,
,-63.54004545,-114.3859818,29.63051238,0.19104577,1.037157696,1.133922936,,,
,-114.2546025,-109.6593091,51.5168126,0.28290051,0.687833639,0.834207238,,,
,-125.8675976,-110.0895432,65.77790401,0.238875025,0.250486239,0.664898267,,,
,-117.352528,-107.3634673,74.08413046,0.185333843,0.073470948,0.603586544,,,
,-109.0477913,-116.659994,76.92348011,-0.043235474,0.144774108,0.694442915,,,
,-113.3837067,-142.0448891,76.99888136,-0.219883282,0.306748726,0.835596228,,,
,-130.0109992,-175.8825159,77.40327497,-0.361808869,0.461015392,0.947959327,,,
,-156.2688528,-214.1326054,80.61922978,-0.476875535,0.569095413,1.01453476,,,
,-185.0928125,-252.3384052,88.21808253,-0.577608563,0.613414679,1.001371662,,,
,-207.23448,-284.2959857,92.95902181,-0.567938022,0.530496738,0.892163507,,,
,-215.9593667,-303.7794155,94.27126705,-0.510964628,0.391269419,0.746009786,,,
,-208.1623279,-310.4274448,89.3290477,-0.454084302,0.281184302,0.644222732,,,
,-183.9790398,-310.9015674,78.28499972,-0.42239368,0.167339653,0.536783996,,,
,-138.6138459,-289.4332971,62.77136527,-0.452311621,0.101957696,0.512463812,,,
,-99.48420895,-263.5070142,46.99015954,-0.695853415,0.441393374,0.692801223,,,
,-80.52457715,-249.0568467,25.89179087,-0.746103058,0.79964475,1.045998471,,,
,-78.45470982,-245.5562465,15.15983301,-1.122389195,1.390005301,1.470823853,,,
,-96.36691748,-261.4565701,41.92200407,-1.228971662,1.714644037,1.378278287,,,
,-110.9084144,-242.7328824,64.28764078,-1.061750765,1.833515291,1.022570846,,,
,-126.2785229,-213.9206683,81.39014449,-1.151032008,1.998593068,0.888120387,,,
,-142.7308341,-199.8614872,110.5363929,-1.325816412,1.888251478,0.83359001,,,
,-136.5441505,-204.6553105,153.2107479,-1.611618247,1.544077676,0.694072681,,,
,-130.5005916,-205.0797576,179.4628719,-1.556477676,1.521945056,0.386506626,,,
,-146.3467135,-174.6047055,179.6337852,-1.475372477,1.53976055,0.100969113,,,
,-161.3897204,-131.233863,174.8754853,-1.556623547,1.386858614,-0.193638226,,,
,-155.9046235,-90.64398584,175.7356669,-1.842487156,1.149269113,-0.571583894,,,
,-121.665697,-64.46502852,180.3044323,-2.471290214,0.965711111,-1.093960856,,,
,-61.33008994,-49.66077312,153.7046948,-2.231096636,0.662567482,-1.484028338,,,
,6.412199868,13.42720863,94.41232926,-1.385856779,0.357199185,-1.362423445,,,
,43.83763116,106.8820108,26.96728995,-0.636794292,0.739181244,-0.983872885,,,
,11.40071421,199.8396575,-34.18243287,-0.931899694,0.958468298,-0.406159837,,,
,-16.82656723,193.4413232,-56.09377135,-0.958036901,0.731950459,0.759978593,,,
,-45.64009909,166.0085624,-36.22405339,-0.297552192,0.934930887,1.221039959,,,
,-49.05527132,170.8956632,-34.74238453,0.106058716,-0.087993578,1.338871764,,,
,14.93534814,162.6603689,15.08340044,-0.031528135,-0.24020051,0.906409174,,,
,58.81692516,194.3640145,14.08123996,-0.734155046,-0.18898318,0.973831804,,,
,64.20255655,154.7613436,-5.747568826,-1.905277268,0.069114883,1.367934047,,,
,75.97042211,89.72398751,-32.07612543,-1.653083078,-0.000720387,1.278096636,,,
,93.67625038,68.42863595,-18.29425592,-0.585121916,0.616266463,0.86629419,,,
,91.29526696,78.65822443,18.35000471,-0.25535525,1.500521101,0.935129766,,,
,0.043258314,68.25886856,-4.851176356,-0.867305301,0.774342304,1.303674414,,,
,27.04905103,67.11152057,-6.210633316,-0.845625178,0.385819164,1.022583078,,,
,-10.18002762,12.80474728,-0.419519698,-0.414863507,0.562040367,0.793124465,,,
,-7.119573562,13.74961198,-0.721468456,-0.46082844,0.668082773,0.935075637,,,
,-2.6839062,7.260463884,-0.873302271,-0.422930479,0.571035372,0.867949134,,,
,-3.636391238,4.578563037,-1.991486704,-0.378774414,0.545556167,0.839686239,,,
,-0.901606386,0.898225935,-2.141200576,-0.413551682,0.446869521,0.855055046,,,
,3.109098179,-0.808844519,0.830215845,-0.390692864,0.446829562,0.84753792,,,
,5.563305599,-1.048971131,1.632700533,-0.378895005,0.449853823,0.854270744,,,
,6.267470729,-0.955693602,1.38770378,-0.381990928,0.467660041,0.839607034,,,
,7.709376317,-0.930712642,2.383561724,-0.37410632,0.458404689,0.833190622,,,
,7.716767472,-0.161745986,2.543302357,-0.375681753,0.448393782,0.830097655,,,
,6.277841265,0.884646836,1.657910676,-0.353581346,0.475361876,0.820318654,,,
,3.39649381,3.271016052,-0.471773449,-0.305470438,0.518461264,0.807646279,,,
,-0.618966306,5.832595763,-3.746914797,-0.295995413,0.524631091,0.800446483,,,
,-2.366430285,5.651884874,-4.954709829,-0.336985831,0.487720183,0.802863405,,,
,-3.698041497,4.67585127,-5.44355742,-0.366166667,0.455391131,0.808129358,,,
,-4.624628843,5.262903827,-6.326485382,-0.37092212,0.444576555,0.815989806,,,
,-4.046571724,4.330529607,-5.092334292,-0.365416412,0.440697859,0.817411315,,,
,-1.877410807,2.277163461,-5.284733519,-0.333110296,0.462966667,0.818273089,,,
,-2.253099234,2.148820915,-6.114089928,-0.300000815,0.489107747,0.814460041,,,
,-3.234747824,3.189656045,-7.147648494,-0.292108257,0.501435066,0.811972273,,,
,-2.484459591,2.405563303,-7.760598743,-0.314195005,0.47833843,0.817871865,,,
,-2.626094758,1.711023864,-7.253130024,-0.352048522,0.449873496,0.828007034,,,
,-0.4520637,1.81587514,-5.319168283,-0.378837513,0.432216616,0.827028644,,,
,2.226284809,1.664041324,-3.379419667,-0.394568909,0.436914271,0.82117788,,,
,3.866491089,-0.335581381,-1.983006929,-0.389805403,0.452362793,0.811771662,,,
,5.309256113,-0.967152758,-0.786212686,-0.37878736,0.452318756,0.814629664,,,
,5.567201712,-1.060945949,-0.474752829,-0.368531193,0.463099592,0.811307645,,,
,6.228796078,-1.518624636,-0.366922172,-0.368546075,0.455374312,0.814402141,,,
,7.564016924,-1.703861891,0.420780205,-0.358308869,0.458423955,0.815729358,,,
,7.601660251,-1.118700095,-0.396715977,-0.350432824,0.470727625,0.819460449,,,
,7.345490821,1.0996206,-1.104662629,-0.333900714,0.46450581,0.819848726,,,
,9.255674814,3.38142502,-2.860434496,-0.333118756,0.467576962,0.822946177,,,
,9.255903997,4.490785902,-3.212459766,-0.334710092,0.45831366,0.8260737,,,
,11.28984687,5.543252076,-3.536295512,-0.341031397,0.453680326,0.832427319,,,
,13.55354583,8.96249231,-3.016565496,-0.333160347,0.455191131,0.834582773,,,
,14.78305596,13.8254716,-3.732877331,-0.331562793,0.464463405,0.829123242,,,
,17.85496918,19.2000449,-4.112805645,-0.327661978,0.459776555,0.841462283,,,
,25.18178157,23.35645263,-5.576712812,-0.374308767,0.385697554,0.885910907,,,
,42.74654763,23.61651817,-6.618865745,-0.338816208,0.418794495,0.876616004,,,
,44.76857298,41.66148016,-4.393554965,-0.423146483,0.358095311,0.880751784,,,
,53.9753172,48.17492167,-5.037674118,-0.344223344,0.458252396,0.849610194,,,
,62.76380223,59.77829105,-5.908913741,-0.342692966,0.439694292,0.860421509,,,
,74.64224865,69.6756213,-9.008844596,-0.336270438,0.480681142,0.827707645,,,
,86.64433936,81.35043851,-12.19781309,-0.366310703,0.478297554,0.869586035,,,
,100.1825872,96.71470286,-20.89995338,-0.303330785,0.428768909,0.862611927,,,
,116.5608723,107.9640416,-30.76536988,-0.257496942,0.529007645,0.836111519,,,
,127.8193783,129.0130213,-40.52954474,-0.246463099,0.501251682,0.82414577,,,
,146.1442302,148.935566,-49.83924947,-0.283430683,0.510674822,0.80946055,,,
,166.5289226,176.9243824,-54.94155323,-0.356781855,0.543095107,0.860945056,,,
,192.3616416,205.338047,-66.67337975,-0.180121509,0.468964526,0.743283078,,,
,225.5855734,248.8238821,-84.75260461,-0.214700815,0.435274414,0.705139246,,,
,277.3854844,299.3950851,-100.5566141,-0.277610805,0.540372069,0.703669929,,,
,306.2017665,344.4478452,-110.2045358,-0.589604281,0.929411621,0.875559837,,,
,297.6121551,336.575004,-108.1585035,-0.673678593,0.961883078,0.517639144,,,
,318.3575817,283.5613965,-71.90912537,-2.011002854,1.478165443,1.301588583,,,
,309.0017539,232.7498376,-68.44593928,-1.177120795,0.997359735,0.308426402,,,
,307.6820029,178.3974569,-51.18071556,-1.647756167,1.57246208,0.965460856,,,
,284.9527099,130.9207989,-83.1521616,-0.711918654,1.345802752,0.805317635,,,
,259.759641,120.878052,-102.8572115,-0.821998267,1.299804893,1.019946789,,,
,213.0486838,88.65267102,-106.4754973,-0.806626504,1.24102212,0.847692661,,,
,125.4243575,26.54198338,-81.60385775,0.395385831,0.6476579,1.167367992,,,
,43.43541479,-34.63191826,-39.90507804,-1.409973293,2.612542406,1.911965341,,,
,-90.15330478,-117.469526,20.8725087,-0.333517839,1.450042813,1.288163405,,,
,-142.7245316,-132.3028304,47.05244005,0.25464475,0.790519164,0.831165749,,,
,-165.7227137,-137.5911162,57.12549646,0.018461264,0.397665647,0.674875433,,,
,-157.9159346,-149.1681869,64.06372888,0.034305301,0.077263201,0.537078084,,,
,-141.2405136,-154.2535884,62.91156805,0.052482977,0.012586544,0.492229664,,,
,-127.28584,-159.4050519,57.5186028,-0.005068298,0.08200897,0.537207747,,,
,-126.423825,-171.0740822,52.26601221,-0.107615291,0.271598165,0.660401937,,,
,-138.820168,-192.3458852,52.62852261,-0.296834964,0.512232824,0.815987768,,,
,-166.0333142,-222.4810015,59.55197272,-0.452912844,0.690458308,0.927165749,,,
,-193.2117391,-254.9298933,69.12105545,-0.555301121,0.750075739,0.949049847,,,
,-213.268184,-283.715121,81.12016678,-0.58897472,0.71655209,0.866578287,,,
,-224.4253911,-302.0460463,88.07117615,-0.564271458,0.646014883,0.735286544,,,
,-220.4508975,-306.3536576,87.56313448,-0.485226096,0.47593476,0.571468196,,,
,-186.4460815,-295.6739534,79.45240123,-0.393620387,0.225637207,0.397101121,,,
,-126.8472982,-264.6555081,69.71681696,-0.439262181,0.244314985,0.389627727,,,
,-86.97109719,-228.8655275,58.84992753,-0.55442844,0.639613456,0.585803466,,,
,-70.33475194,-207.4931132,54.82226342,-0.919892762,1.111007645,1.049015392,,,
,-79.90629839,-222.7030227,68.456539,-1.267510805,1.528394088,1.299505403,,,
,-97.20824871,-224.2539048,85.84053687,-1.074874618,1.642516208,1.157750561,,,
,-109.3465315,-205.9797597,98.68241182,-1.132829562,1.744846177,1.069102548,,,
,-122.6702639,-208.5360682,112.4886893,-1.41623527,1.768966259,1.035190214,,,
,-131.2311701,-222.4642139,131.948456,-1.413485933,1.595400102,0.834238226,,,
,-132.5198668,-218.4983719,144.6446278,-1.328622936,1.369499185,0.538032824,,,
,-132.5998517,-196.3716013,146.8128147,-1.265002548,1.286987462,0.279903976,,,
,-134.9435356,-161.9614177,143.8113753,-1.325956779,1.260114373,0.093128644,,,
,-137.6854251,-127.2673335,141.5284822,-1.411958716,1.221209888,-0.155285117,,,
,-129.9825805,-90.45284712,142.3981749,-1.726237513,1.081455963,-0.477978797,,,
,-97.68242858,-75.2184723,144.2736949,-2.150387564,0.959531295,-0.939605708,,,
,-50.34981216,-44.25594765,118.8431923,-1.78126524,0.655674006,-1.243999083,,,
,1.885203033,19.42957179,71.7038346,-1.189107543,0.409214373,-0.998355759,,,
,1.166370184,146.7191361,5.764528377,-0.75688104,0.719737615,-0.847473394,,,
,-15.21919143,228.3083834,-64.00488611,-1.074749032,0.738126707,-0.362913558,,,
,-26.70716711,208.1714952,-89.72100813,-0.937924363,0.375443017,0.782141998,,,
,-51.39093377,158.2380515,-71.46153074,-0.598995107,0.990444343,1.464327625,,,
,-6.029807836,135.5331091,-41.03483622,-0.169738736,-0.042707136,1.412098063,,,
,32.29390669,170.0877354,-7.820587425,0.191158818,-0.184541794,0.699336901,,,
,78.24712721,192.9054358,9.301282255,-1.148662487,0.214040571,1.200166972,,,
,68.85331227,139.8757282,-2.541869962,-1.949299898,0.271207136,1.402758206,,,
,81.18599963,83.85323275,-9.388486431,-1.141996942,0.256145056,1.076502956,,,
,87.54818028,64.55440993,2.324948141,-0.675102446,0.69637156,0.967222528,,,
,21.81668585,81.18726013,-1.152218126,-0.837573191,1.674933639,1.370054536,,,
,10.70405482,52.53180733,-4.129994379,-0.275497146,0.176378695,0.680366871,,,
,9.463486606,34.86482561,-0.344977888,-0.774270031,0.892441896,1.006401427,,,
,-4.229058782,21.7549783,-4.644395887,-0.238385219,0.67562844,0.804092457,,,
,-15.15966112,12.93440763,-6.657540396,-0.463984302,0.532492966,0.893683996,,,
,-10.26597129,4.348577778,-3.827186184,-0.498678287,0.514817635,0.903768298,,,
,-6.582368334,0.730292006,-1.601818108,-0.423077676,0.468361366,0.890293884,,,
,-1.889786696,-0.923837149,-0.164095113,-0.397823751,0.455263914,0.866372783,,,
,0.980903745,-2.258141262,1.560221372,-0.371028338,0.455980938,0.85954475,,,
,3.638052816,-1.638086336,2.166066944,-0.363135474,0.446737411,0.850018756,,,
,4.754804854,-1.030579186,2.236655345,-0.324466361,0.469076656,0.8274158,,,
,3.436658151,-0.970647801,2.372790117,-0.326832926,0.459833435,0.825897044,,,
,4.257019122,-0.10439291,2.442519081,-0.342593884,0.44908053,0.826235372,,,
,4.461851534,-0.406112485,2.597045798,-0.34101998,0.447533231,0.826196432,,,
,4.254956474,0.197154777,2.341678509,-0.328398981,0.458310092,0.822043119,,,
,1.994294198,1.129185223,0.929566727,-0.318920795,0.468336595,0.814850765,,,
,-0.081531894,2.741087388,-1.503613142,-0.289719368,0.490679715,0.798682263,,,
,-2.96287935,2.997428705,-3.44427849,-0.292085933,0.481436493,0.797163507,,,
,-3.90665543,4.263207066,-5.453183111,-0.301575229,0.470623853,0.808241182,,,
,-4.621362984,5.316532677,-6.122970773,-0.333124669,0.445997248,0.818240163,,,
,-1.436176009,5.100584884,-4.486603311,-0.345790214,0.441320082,0.841062181,,,
,-1.516905763,3.923614981,-3.005049044,-0.339483894,0.455176962,0.843277472,,,
,-1.21868123,3.712594625,-3.258983939,-0.349695515,0.452934251,0.832623344,,,
,-0.167475564,2.575789064,-3.663893213,-0.339421814,0.472214475,0.825430989,,,
,-1.56079433,1.235125119,-4.31202307,-0.315771254,0.472178186,0.816341081,,,
,-1.480179168,0.389496709,-5.193747821,-0.282713354,0.476674414,0.824924159,,,
,0.14186435,1.384724399,-5.831449847,-0.309510805,0.461316718,0.827837003,,,
,0.103648065,1.707185046,-5.415367896,-0.359940367,0.450644139,0.834407136,,,
,1.858732383,0.581093796,-3.805127309,-0.385156371,0.435290724,0.834951988,,,
,4.576500389,-1.561825654,-1.934190925,-0.372545056,0.432186442,0.829994393,,,
,5.817870748,-1.938144334,-0.738256119,-0.363111927,0.430592559,0.835994801,,,
,8.203953485,-0.736766429,-1.107355531,-0.347342202,0.449061774,0.834894088,,,
,9.26713397,0.968871632,-1.800290688,-0.33947105,0.445950459,0.835485933,,,
,8.748492574,4.091720798,-2.965744139,-0.318941488,0.468307034,0.822624363,,,
,9.650270848,6.487314635,-4.426958404,-0.318978389,0.45900948,0.833489602,,,
,9.515453878,10.32790803,-7.021826962,-0.292163303,0.482866667,0.82670632,,,
,7.981588565,12.08843545,-7.903207939,-0.286638226,0.49211264,0.825043833,,,
,8.67102868,15.48263743,-10.07890057,-0.295319776,0.480555963,0.82832844,,,
,10.70663313,19.71100866,-11.40965235,-0.298554027,0.440384404,0.846979307,,,
,14.94491654,26.3271815,-9.599163012,-0.365501019,0.433643323,0.846937819,,,
,22.34655722,30.61840621,-6.738499333,-0.410459939,0.399781957,0.861888379,,,
,39.17146288,28.3527019,-7.148966297,-0.432776758,0.288530683,0.92591998,,,
,42.12408628,50.33101915,-8.893680079,-0.273434149,0.430177064,0.874370336,,,
,57.86226289,52.92909627,-10.4532139,-0.290706218,0.465744648,0.86550581,,,
,66.28508625,65.54339238,-15.02323987,-0.328589297,0.419518247,0.881048216,,,
,82.55433743,77.92054126,-18.04553494,-0.317534455,0.445720489,0.878515494,,,
,93.0488043,100.106613,-27.23938761,-0.229139959,0.584399388,0.851897248,,,
,115.3911789,111.0287356,-32.2462366,-0.304966259,0.538084811,0.920385219,,,
,123.6392502,132.9315943,-42.62032503,-0.223737309,0.434767074,0.845262589,,,
,145.8784351,156.5332155,-52.8214948,-0.284304689,0.467411009,0.82805158,,,
,164.7504044,185.7736583,-65.09075572,-0.211044546,0.522686748,0.838926707,,,
,183.0839652,215.9455012,-77.20210949,-0.258424261,0.518024771,0.885082569,,,
,216.0178657,258.9050745,-98.79832118,-0.101382365,0.484114475,0.75395474,,,
,254.9139651,311.7317259,-125.6617912,-0.198162589,0.58006055,0.751685015,,,
,288.980947,362.1155718,-143.5429445,-0.4350421,0.779780632,0.7512579,,,
,291.2860708,359.8442525,-136.2634584,-1.053844241,1.094718552,0.773755454,,,
,297.6350734,345.8646552,-108.7358731,-2.031249235,1.455443017,1.207949541,,,
,318.8891147,251.2888038,-74.01869868,-1.375421713,0.99474577,0.543030275,,,
,277.1077145,197.607815,-82.2072396,-1.577852192,1.595096228,1.043198471,,,
,238.7351839,163.6231672,-111.8936154,-0.920073496,1.53790999,0.958130887,,,
,210.4506067,131.4357161,-110.3290395,-0.954759123,1.354609582,0.911923445,,,
,156.0622442,62.31397307,-91.72710525,-0.117121203,0.594404077,1.376388583,,,
,139.2103523,-6.368024822,-52.65333168,-1.103237513,1.614137513,1.744443935,,,
,0.228151794,-147.8176107,16.22003411,-0.68252263,1.856560754,1.760201019,,,
,-62.48379776,-166.2819205,51.94698931,0.485847401,0.936492762,1.004187564,,,
,-112.947915,-140.5325097,64.95341774,0.472128644,0.54967472,0.708360143,,,
,-119.3146793,-120.9896641,76.8705961,0.42170265,0.131463507,0.58276473,,,
,-109.305565,-110.4379015,81.16130515,0.226280326,0.073339755,0.60576208,,,
,-100.9387769,-121.7926645,84.96563031,-0.025991947,0.170798267,0.733744241,,,
,-106.5243706,-146.17093,86.11498365,-0.20888634,0.374470234,0.868125688,,,
,-128.2049789,-177.3976455,87.91722239,-0.363285525,0.616011927,0.960733537,,,
,-165.6027364,-207.0421381,91.4590756,-0.460147197,0.757295515,1.003639246,,,
,-202.8220747,-234.4389172,98.50777428,-0.541142202,0.760794699,0.958853211,,,
,-224.0739961,-259.007462,105.067167,-0.57404893,0.651739653,0.859892559,,,
,-229.5318202,-277.1019849,112.0935776,-0.546999083,0.513376758,0.712868094,,,
,-215.7524144,-283.5917632,114.6815707,-0.434821407,0.308608461,0.517133435,,,
,-172.2294516,-267.1320609,108.5974465,-0.302235984,0.102140163,0.346581855,,,
,-121.4503795,-231.5244528,96.1738307,-0.456700612,0.322787666,0.457028746,,,
,-96.82396591,-208.075754,79.50986889,-0.710799694,0.740379409,0.7823421,,,
,-96.37402216,-211.6216752,64.58053681,-1.163690418,1.156554027,1.231115392,,,
,-108.5392339,-239.9169667,60.20537379,-1.318217227,1.318561978,1.346112844,,,
,-109.3810808,-253.5411582,55.87673494,-1.227984404,1.445285423,1.216822528,,,
,-113.8879096,-256.2277573,56.70007529,-1.353462487,1.746106116,1.114556065,,,
,-130.9197103,-266.0501447,74.35284767,-1.397038328,1.90646422,0.968171764,,,
,-141.4920421,-268.6322363,103.0265778,-1.412264832,1.720822324,0.711638736,,,
,-138.1765072,-259.1752241,132.2894805,-1.383190826,1.521463812,0.37633629,,,
,-133.444678,-230.4731325,144.9651977,-1.393650765,1.418300204,0.130738532,,,
,-125.4842889,-191.416032,150.1082387,-1.508273496,1.293581549,-0.044122222,,,
,-114.8785536,-153.1506446,156.1068204,-1.640801733,1.171525586,-0.296301937,,,
,-101.9651162,-107.985814,157.0213756,-2.040575433,1.086453517,-0.731983384,,,
,-80.05377773,-75.00728006,141.8728298,-2.300307441,1.128232416,-1.369604281,,,
,-35.82951465,-16.29703964,96.69000838,-1.766982773,0.681563609,-1.571527421,,,
,24.3627957,59.87827218,43.22044102,-1.132989093,0.4586421,-1.058614985,,,
,3.616967969,202.7487934,-6.559450022,-0.562770642,1.119530887,-0.859666972,,,
,-38.9186739,272.8779681,-54.20673486,-0.736353415,0.642053415,0.291463507,,,
,-62.10427051,218.4047506,-19.61223074,-0.789434659,0.911102956,1.383785831,,,
,-89.1769847,209.4395081,-19.55012211,0.050488481,0.199671662,1.597218654,,,
,-7.157503368,173.5426136,28.3866783,-0.336522834,-0.496494393,1.200470948,,,
,41.75510146,207.7251038,21.07378878,-0.732739653,-0.52819368,0.92494159,,,
,75.14536289,172.2178206,-0.223510836,-2.062208359,-0.17108053,1.369487054,,,
,85.33902691,96.20448394,-31.05729188,-1.86749949,0.047395413,1.370139551,,,
,95.80673664,65.52494314,-23.1586103,-0.649788481,0.761170642,0.945784506,,,
,80.86015853,71.98418284,7.398890487,-0.055686748,1.54135423,0.790739144,,,
,1.036480651,74.07009299,-6.175568299,-0.768492049,0.934819674,1.216230071,,,
,22.5206218,77.62397831,-12.63589662,-0.840965341,0.147656677,0.970707339,,,
,-14.53215774,32.89264758,-10.62951302,-0.648210703,0.793526809,0.955139755,,,
,-19.91990907,28.59483386,-14.51399498,-0.393780734,0.708095005,0.9079737,,,
,-22.5233147,13.67644527,-14.92950397,-0.506585933,0.484749439,0.906221713,,,
,-16.18823495,6.997705439,-10.9378216,-0.41826473,0.520089501,0.873961672,,,
,-9.937036224,5.826808889,-8.45273176,-0.40575423,0.410525484,0.872684608,,,
,-7.282809238,5.746594798,-7.437851617,-0.38123894,0.459902956,0.850457288,,,
,-4.485571987,5.05176888,-4.887387288,-0.408894597,0.402844954,0.86652263,,,
,0.710524962,4.100544348,-3.74238843,-0.388344037,0.435246687,0.849016412,,,
,0.745933753,3.760551193,-1.532662102,-0.370958104,0.46070367,0.834677982,,,
,2.095020178,2.787095899,0.071505133,-0.381212946,0.436827829,0.833310398,,,
,2.727279105,2.4666979,1.362092566,-0.366248012,0.435244546,0.832188787,,,
,4.447011927,3.001152931,0.822309028,-0.333172885,0.442846789,0.835336188,,,
,5.429519954,4.366683244,-1.054356935,-0.322068094,0.476824567,0.816493782,,,
,3.568381148,5.035095808,-2.770766601,-0.328324771,0.479987462,0.801096126,,,
,2.741774937,4.258394221,-3.352949017,-0.353532518,0.464645973,0.798531498,,,
,3.174988326,2.928559178,-1.867097567,-0.378793068,0.426116922,0.808359939,,,
,3.181520045,1.722253836,-1.311156618,-0.377260652,0.424510499,0.823868298,,,
,3.583220755,0.905330612,-1.260965516,-0.352053109,0.444474108,0.827996636,,,
,4.572833459,1.824183028,-2.629589801,-0.302376249,0.479081244,0.816049235,,,
,1.633158899,3.082914008,-5.127685788,-0.30628685,0.484524669,0.807598471,,,
,-0.830158549,3.759577164,-6.647284452,-0.326776656,0.467617839,0.80725525,,,
,1.254720276,2.488241113,-6.421653672,-0.35830581,0.452265036,0.812607951,,,
,1.728441781,0.32011152,-2.47185452,-0.403997452,0.412320999,0.805020897,,,
,7.006299806,-3.640631126,3.383946034,-0.447341386,0.415491131,0.816897859,,,
,11.42134069,-8.136057987,6.955306562,-0.389090418,0.439930275,0.835050765,,,
,12.74120627,-9.355999724,7.22156005,-0.378860856,0.458377064,0.844181448,,,
,8.404431418,-6.664186707,3.222486527,-0.344144241,0.478396024,0.826328033,,,
,5.916648671,-2.941278841,-0.228151794,-0.342539348,0.479204179,0.815410499,,,
,5.197586639,-1.744427303,-1.104777221,-0.341008053,0.456795311,0.824659633,,,
,5.191398694,-0.14077573,-1.865550581,-0.31582314,0.459777574,0.831864526,,,
,6.193158103,2.306155125,-3.323842761,-0.315831702,0.46438787,0.836537717,,,
,6.577383601,5.250527939,-5.300489859,-0.331567992,0.458292661,0.829111315,,,
,7.789876887,7.149367368,-6.350091243,-0.33947472,0.436700306,0.833913252,,,
,10.75304272,9.585813096,-6.239395797,-0.333190826,0.441280428,0.841552192,,,
,13.52100182,13.5022661,-6.018864342,-0.309554536,0.436601325,0.836340163,,,
,15.7829819,18.23936656,-5.895048163,-0.358350051,0.45374261,0.829712946,,,
,19.45959478,20.37099874,-5.674574003,-0.355232722,0.449064016,0.840515291,,,
,27.01897074,24.11504875,-5.59682363,-0.402699694,0.3610737,0.892728644,,,
,37.9900812,34.25101592,-7.171483539,-0.177110296,0.519603364,0.811718043,,,
,48.02411918,43.75329177,-7.108859252,-0.371086646,0.416607136,0.86879684,,,
,54.71609434,55.75188744,-8.572250756,-0.3443158,0.410355352,0.86895158,,,
,68.58894954,63.53145108,-10.68514722,-0.334032518,0.445827931,0.863345362,,,
,80.40282362,75.89966183,-12.9457522,-0.358442712,0.439743119,0.860003262,,,
,86.81267436,89.79967523,-21.96622784,-0.270289908,0.369297146,0.857078287,,,
,107.9455351,103.6521904,-26.2375709,-0.308895923,0.491883894,0.902505912,,,
,126.2587559,123.0616514,-35.55753158,-0.268532008,0.479721407,0.82382946,,,
,145.2405039,143.7994577,-43.00443593,-0.296963507,0.453498573,0.845414067,,,
,167.3697382,171.2035134,-51.79590034,-0.251219164,0.504303466,0.83669735,,,
,188.0961427,196.9575652,-59.70128552,-0.218217533,0.440153313,0.844369929,,,
,226.2011592,242.4102498,-77.60266428,-0.129772681,0.416348726,0.746696126,,,
,273.8887803,295.4922685,-96.73624607,-0.214776045,0.478309684,0.747200714,,,
,308.8742708,344.731975,-113.6727639,-0.472906014,0.885351274,0.808295107,,,
,297.2340602,339.1679818,-108.4414873,-0.804008155,1.015651886,0.679289806,,,
,329.7376122,328.3962034,-81.3330206,-1.927529664,1.547242202,1.326249745,,,
,300.1750526,230.445516,-73.31069473,-1.293990724,0.973379409,0.418314679,,,
,293.1949942,175.8963242,-58.16982663,-1.701284098,1.766800408,1.018365036,,,
,257.3555674,123.8786892,-94.987407,-0.761058206,1.528089704,0.980915291,,,
,226.2538713,121.5203376,-113.7594524,-0.71163262,1.286533639,0.974651784,,,
,176.9335497,95.43041796,-116.005848,-0.514055454,1.046207136,0.93391998,,,
,127.7632285,42.04564836,-91.70894249,0.009479715,0.645720591,1.169943833,,,
,23.84868067,-86.7428881,-42.14677541,-1.36553578,2.2689316,1.971688277,,,
,-41.96915849,-146.7409658,6.236416417,0.009829154,0.947447604,1.135546789,,,
,-84.54834515,-149.7172523,25.79834146,0.308213761,0.632448624,0.774445056,,,
,-99.30074787,-149.846397,40.95691396,0.192596636,0.303279918,0.611644037,,,
,-97.18911191,-142.8901164,48.79039293,0.23451366,0.126214781,0.488301937,,,
,-92.54070532,-138.5406219,51.31581901,0.108469725,0.162749032,0.513789501,,,
,-96.38685641,-145.7241949,53.84731843,-0.019266667,0.297732416,0.614908767,,,
,-110.8312943,-161.9060127,57.30173827,-0.183325994,0.50279419,0.774515291,,,
,-137.808611,-190.4245859,65.47641362,-0.347300408,0.695650765,0.898339042,,,
,-171.9724228,-221.7617103,79.01930243,-0.426081651,0.767496432,0.931368705,,,
,-197.2832917,-248.1785024,94.6140677,-0.456660245,0.72232844,0.865904995,,,
,-212.1352745,-265.6562362,107.4294147,-0.413081448,0.600851376,0.727864628,,,
,-210.4236204,-270.3686422,113.4208344,-0.354645056,0.468392864,0.625998267,,,
,-197.5775629,-269.67628,112.469839,-0.374278593,0.417683792,0.589035066,,,
,-175.4935349,-260.7301743,106.1061687,-0.374187768,0.41010948,0.552483996,,,
,-145.6230678,-241.717372,99.93959581,-0.464017125,0.507379409,0.602139144,,,
,-120.4072525,-219.0772312,93.74013517,-0.546898675,0.670682773,0.725610907,,,
,-92.2057542,-202.4832848,89.81325433,-0.812165138,0.912453007,1.047725382,,,
,-84.80921284,-213.8103166,90.96037313,-1.156717023,1.372082365,1.343312946,,,
,-90.81833689,-223.4123444,94.57321581,-1.029673394,1.726443323,1.363652497,,,
,-103.699574,-216.2507158,106.460142,-1.225267788,1.89107737,1.22696106,,,
,-108.7296851,-222.5172125,123.3737415,-1.297884608,1.920694393,1.001696024,,,
,-113.829296,-228.4570659,136.1681183,-1.333588175,1.891504791,0.795684709,,,
,-112.750531,-231.8372877,156.5609467,-1.463982569,1.56803945,0.564827217,,,
,-104.3597933,-226.1945129,175.0671397,-1.457172477,1.38308104,0.314011621,,,
,-110.4291925,-196.0430673,180.7131231,-1.436914373,1.282141896,0.067717737,,,
,-123.7385437,-147.5562274,180.0355432,-1.597761366,1.147120897,-0.200942813,,,
,-133.91966,-105.4755713,171.6821624,-2.108839755,1.207972477,-0.787711213,,,
,-130.0975731,-61.60510968,133.6495104,-2.124049134,0.902528644,-1.384947095,,,
,-64.75190848,-5.813573564,82.49795839,-1.649029969,0.239155657,-1.350435882,,,
,8.519882414,52.19857508,32.18063293,-1.220566972,0.201774108,-0.785057696,,,
,37.15453685,80.11857925,0.722557075,-1.187529256,0.677015596,-0.026212538,,,
,-16.84644887,160.9518661,-35.83083245,-0.903877268,1.332743527,0.133396636,,,
,-61.22730131,187.8332696,-87.04317528,-0.839997146,0.598127625,0.160040673,,,
,-53.01681611,158.3438768,-93.03344903,-0.436277268,0.271090928,1.051892151,,,
,-75.94956645,164.8521044,-98.32946981,0.282821509,0.460508767,1.382554842,,,
,4.265785376,138.0625459,-46.31848112,-0.268082671,-0.134362283,1.049595821,,,
,63.42843327,183.5908609,-21.49244904,-0.179182467,0.032002854,0.841903772,,,
,71.4159806,162.457771,-1.088734402,-1.794902854,0.585123649,1.489244852,,,
,68.70927068,100.2554674,-7.966347888,-1.427439551,0.392089399,1.251956065,,,
,80.39675026,82.42948993,-5.247720446,-0.75959052,0.596156575,1.017923955,,,
,74.01950082,69.3606664,16.92041772,-0.486165749,0.704943833,0.997911315,,,
,30.40222923,101.2991101,-8.142131339,-0.6485421,0.910154944,1.117058919,,,
,19.61228803,57.30265501,-7.387889698,-0.452773089,0.416393986,0.786707747,,,
,20.13448177,52.96547909,-9.086881448,-0.350930887,0.872523955,0.839691437,,,
,-8.515241455,41.62939452,-16.52307149,-0.326681448,0.711201325,0.849705301,,,
,-15.60376071,22.49306253,-12.79116818,-0.774712742,0.546668705,1.061702039,,,
,-7.841614976,6.527937343,-5.476101423,-0.492454027,0.495429969,0.926130785,,,
,-4.554613401,2.225711851,-2.437419756,-0.434131295,0.446012844,0.893611417,,,
,1.121221109,-0.00515662,0.294156532,-0.377328236,0.452148522,0.858126198,,,
,4.637806873,0.407602175,0.961709659,-0.333162181,0.479841488,0.843181651,,,
,4.635171267,1.774392996,0.714994033,-0.309465443,0.497590418,0.822465647,,,
,4.650411944,1.793758969,1.281305517,-0.342592151,0.470654332,0.832496126,,,
,6.389625331,0.997806,2.070955951,-0.350463914,0.470683282,0.831120999,,,
,6.405553558,0.670876282,3.045270681,-0.344150765,0.470682671,0.826313048,,,
,8.343927075,0.219672019,3.530451342,-0.334700917,0.469112436,0.826094597,,,
,8.128494944,0.204488637,3.064407471,-0.309467278,0.49065423,0.820897554,,,
,6.195392639,0.892668245,0.369844257,-0.293642406,0.510743119,0.799588277,,,
,3.064522063,1.968511097,-1.414002543,-0.277865138,0.513815087,0.790683996,,,
,-0.92830622,3.095805559,-3.362402821,-0.303100408,0.495352701,0.797441794,,,
,-2.19328244,3.560187852,-3.375408963,-0.334644648,0.47689684,0.807452803,,,
,-1.208654469,2.622313237,-2.340188818,-0.362259225,0.458417635,0.820483384,,,
,-1.395324118,2.29549811,-1.369082651,-0.353598369,0.455307034,0.820279817,,,
,0.89450171,1.383635779,-0.832335789,-0.30947054,0.472159837,0.816197452,,,
,-0.707545581,2.111062996,-2.184745369,-0.290517227,0.502993884,0.806497757,,,
,-1.328230761,1.897120555,-2.655544789,-0.309401937,0.513859531,0.803840265,,,
,-2.413928487,0.655119943,-3.400848289,-0.309435984,0.50302528,0.813147808,,,
,-3.594221545,0.436651136,-4.0360293,-0.320482365,0.489161468,0.816481753,,,
,-2.256880755,-0.053055892,-3.250676051,-0.333128644,0.470644546,0.827616412,,,
,-0.301089321,-0.627847152,-1.941123714,-0.369370234,0.456094699,0.828414169,,,
,2.365055187,-2.064768006,-0.321887689,-0.364639144,0.455318451,0.825972783,,,
,4.818689649,-1.998362198,0.483633675,-0.35359052,0.464563099,0.820297757,,,
,5.930227771,-2.620766251,0.338331578,-0.323670031,0.474479715,0.825853619,,,
,6.138612521,-0.694539439,0.098491445,-0.315011621,0.478299286,0.828772987,,,
,7.049787303,0.663026761,-0.341368254,-0.300018145,0.490623751,0.821459327,,,
,6.621386759,2.497809508,-2.029989468,-0.309472987,0.481401121,0.820102243,,,
,8.867667795,4.92755163,-2.238030444,-0.309492762,0.475209684,0.825531804,,,
,9.013084484,6.78863314,-2.941508024,-0.288979715,0.495231498,0.818107441,,,
,7.806492663,10.50420715,-3.185874524,-0.29683629,0.496052396,0.811292253,,,
,12.54450985,12.71439184,-3.620061941,-0.315842202,0.452046483,0.836513761,,,
,16.5486827,18.12019134,-2.956404927,-0.32685423,0.459032416,0.833669215,,,
,20.16278588,22.94226144,-1.480064576,-0.362331702,0.441365341,0.842216718,,,
,27.92693696,25.03596382,-0.381761779,-0.377385627,0.408923853,0.865816106,,,
,38.60326063,27.68784168,-0.675001578,-0.356834659,0.461356779,0.854567686,,,
,49.97418103,27.67603874,-4.434578743,-0.284484608,0.430945056,0.88395158,,,
,53.56341784,50.47483155,-6.264032983,-0.304981448,0.447155454,0.89688787,,,
,65.58195244,57.85235072,-11.74666612,-0.265416718,0.521263914,0.850268705,,,
,75.33294927,70.77392409,-15.99062181,-0.262343425,0.471838736,0.863316412,,,
,91.5079489,82.03976404,-18.81622047,-0.309687462,0.457982773,0.893129664,,,
,106.8582331,97.46166794,-22.43966286,-0.315828542,0.531417533,0.856879205,,,
,133.0904182,108.5862738,-30.17098346,-0.247975841,0.569911417,0.822760041,,,
,141.9124785,126.8456366,-36.64683894,-0.292138022,0.502933333,0.82363578,,,
,155.3554435,148.9534423,-41.48741558,-0.280370336,0.487424771,0.835774312,,,
,177.5203158,172.218279,-47.5337246,-0.279547706,0.489783894,0.823322936,,,
,209.3364903,204.0788004,-56.06019603,-0.232186442,0.458210601,0.77243262,,,
,241.7680214,247.1814986,-66.7459162,-0.204362997,0.517819368,0.694182569,,,
,280.8721045,295.4011109,-81.19780256,-0.317600815,0.593129562,0.654936188,,,
,300.7995193,312.0305807,-86.21043842,-0.970870438,1.240892762,1.010788379,,,
,291.7197998,327.957948,-93.82172436,-0.454448624,0.92466473,0.395969521,,,
,308.1144715,237.837932,-62.83903159,-1.946159225,1.507625586,1.211553007,,,
,300.2637465,198.5862551,-63.88851838,-1.079466667,1.168864934,0.364057696,,,
,295.3020465,142.1053361,-59.35894324,-1.21566738,1.766043731,0.834726198,,,
,262.790817,131.9211832,-105.3708346,-0.501141896,1.350155148,0.91400999,,,
,251.2127723,120.2750139,-119.6536411,-0.692235882,1.245996636,1.071295719,,,
,210.891555,83.35349897,-120.7149882,-0.557388073,1.118729766,0.963810805,,,
,143.126748,37.94733855,-93.29087896,0.369058104,0.797837411,1.046999694,,,
,23.00179176,-54.1179264,-55.87616198,-1.194246993,2.685766871,1.958493782,,,
,-93.25959547,-121.3644358,-2.976114675,-0.180850051,1.331547095,1.293778695,,,
,-141.4995478,-132.2361954,19.90925206,0.345820082,0.749927319,0.885752294,,,
,-158.8257916,-132.0123408,27.93684913,0.220033537,0.370811213,0.681109888,,,
,-149.2852994,-129.739188,31.71619334,0.256410398,0.091259735,0.53515107,,,
,-132.3017991,-128.0235805,31.19869786,0.140585933,0.078430989,0.55175841,,,
,-117.4307941,-143.0525499,30.73867005,-0.028146687,0.169561366,0.655281142,,,
,-114.3457601,-167.8162442,33.74956326,-0.153511723,0.387753721,0.77982895,,,
,-130.0517938,-196.4681447,38.9416495,-0.276439959,0.61991213,0.881028746,,,
,-156.9326244,-228.6427616,50.83831598,-0.393827523,0.779675739,0.948535678,,,
,-184.0092347,-261.3278265,65.95924515,-0.495378186,0.817791131,0.944706932,,,
,-203.5873745,-288.6852434,81.47064506,-0.497533028,0.787278797,0.856858716,,,
,-214.6741078,-304.1438739,94.1496854,-0.441313252,0.707423242,0.717056983,,,
,-211.3525569,-303.0678019,98.14629521,-0.329166769,0.548834659,0.547842508,,,
,-181.3410276,-284.1456415,94.41553782,-0.210042915,0.342301733,0.404804077,,,
,-131.094577,-243.3976853,90.13720467,-0.325812232,0.421229867,0.430140265,,,
,-94.25447938,-209.8303226,87.70173297,-0.550752599,0.811027727,0.739187971,,,
,-79.70570587,-208.4528748,93.53822484,-1.133791437,1.362892966,1.307792661,,,
,-101.1649234,-238.2373982,104.1626958,-1.323709072,1.801651682,1.493320489,,,
,-129.7097953,-242.6231609,113.9756294,-1.188515087,1.999219368,1.360034557,,,
,-158.5717994,-240.5128428,128.7364546,-1.37074791,2.116780428,1.218282365,,,
,-169.8302482,-252.3469423,152.345467,-1.586083384,1.777554128,0.939581855,,,
,-152.7265413,-260.6951092,173.3335986,-1.712841488,1.446299083,0.52362314,,,
,-135.1201212,-244.2190776,177.552115,-1.613545158,1.376345158,0.180754536,,,
,-131.6275423,-199.8691076,164.0081948,-1.590024873,1.368004893,-0.077869623,,,
,-132.719428,-147.935239,147.5892298,-1.745259735,1.300904893,-0.362071662,,,
,-124.6513228,-101.3660888,133.8461495,-2.175700612,1.205206422,-0.818839857,,,
,-90.26950062,-75.46954241,126.0713987,-2.651293884,1.117328746,-1.47044893,,,
,-32.04833697,-28.19748763,96.57008831,-2.01613476,0.710760652,-1.750015698,,,
,-1.494445817,122.6584037,38.99447621,-0.922282773,0.769043629,-1.712654128,,,
,-5.350451778,263.4023921,-30.48101093,-0.967484709,0.75107105,-1.00973527,,,
,3.000981044,240.0589456,-33.70046078,-1.29750316,0.59311947,1.023963201,,,
,-38.10031828,171.7960664,-8.113082379,-0.746163201,1.17942528,1.782091641,,,
,-88.80576534,180.8233602,-44.58929449,0.225006728,0.472131295,1.212107034,,,
,6.150873818,153.5259893,-9.111404041,-0.506199083,-0.558538328,1.017660143,,,
,46.69944075,169.9516006,15.92095014,-0.445448318,-0.169152701,0.805605097,,,
,79.07688469,169.3979515,4.753888122,-1.279482875,-0.026058919,1.156040163,,,
,86.79560022,111.0030098,-1.255866191,-1.58029052,0.275350153,1.239665851,,,
,91.38636725,80.12276185,-1.453651222,-0.8611737,0.634995923,1.026534557,,,
,68.05237457,87.01120423,7.250666306,-0.315238838,1.522999286,0.953640163,,,
,7.834567595,49.62874478,-5.85476923,-0.929015698,0.813771254,1.126374006,,,
,29.11530873,55.49331159,-5.823657621,-0.653197554,0.349414577,0.910854027,,,
,-0.051795385,34.33432399,-7.965660338,-0.443280122,0.782368094,0.888259837,,,
,-8.536784669,32.13662977,-10.83182441,-0.486038634,0.645033741,0.930941386,,,
,-11.84292303,12.70069815,-9.031648316,-0.519178084,0.461687462,0.895581142,,,
,-8.634703156,5.56044081,-3.950773181,-0.49239103,0.506305708,0.905940265,,,
,-2.916870839,1.536959285,-1.493815563,-0.432501937,0.456100714,0.876492966,,,
,2.012055889,-0.920857768,1.998763268,-0.402506728,0.461501631,0.852499898,,,
,3.730642796,-0.784837588,1.764194347,-0.347307238,0.483009582,0.832627829,,,
,5.264393517,-0.217437483,2.25138036,-0.31419735,0.49990632,0.82568736,,,
,4.43881863,0.577254979,1.474907956,-0.314163405,0.498413965,0.812469215,,,
,4.643078084,0.675230762,1.324105465,-0.337822528,0.473785117,0.816846993,,,
,5.972855831,1.036022285,1.60273484,-0.346499796,0.472249949,0.82170581,,,
,6.683266201,0.679012283,1.661291127,-0.346490214,0.473804485,0.818599286,,,
,4.856390272,0.391960428,2.096223389,-0.321243017,0.489202243,0.806393986,,,
,2.977145999,0.321944985,-0.347498903,-0.296011825,0.505347604,0.800409072,,,
,-0.402903922,1.860508552,-2.079034655,-0.303083792,0.495376351,0.791222936,,,
,-2.567767655,2.473687985,-3.904650078,-0.302317125,0.48532895,0.795849745,,,
,-3.885627879,3.286485913,-4.173252692,-0.333090214,0.462224975,0.810497859,,,
,-2.589196276,3.977071943,-3.120729223,-0.35045107,0.461456779,0.823329358,,,
,-0.598397121,1.96547442,-2.079321134,-0.353586748,0.473813252,0.821870438,,,
,0.121295165,0.715738878,-1.204758356,-0.339388787,0.489210601,0.818467584,,,
,0.112929981,-0.710639553,-1.165911817,-0.31573894,0.490714067,0.810158104,,,
,-0.5280952,-2.372503638,-2.267022108,-0.304695413,0.506114577,0.808381753,,,
,-1.855065453,-2.330906902,-2.74824936,-0.322062793,0.482995311,0.816505708,,,
,-1.783961391,-2.503653677,-1.720248484,-0.326031804,0.480651376,0.82747421,,,
,-0.310142055,-2.662878649,-1.804014914,-0.344161468,0.462963303,0.827852905,,,
,1.544808807,-2.328156705,-0.696086425,-0.366229562,0.439893272,0.826756167,,,
,3.56849574,-2.366258398,1.594770727,-0.366202345,0.449947401,0.819779307,,,
,5.548752471,-3.287918307,1.71703992,-0.35204261,0.456815596,0.828020489,,,
,6.06871167,-1.754454064,1.993148282,-0.339433435,0.470656983,0.829314781,,,
,8.700364119,-0.872442835,1.162244887,-0.339426707,0.473748318,0.827766055,,,
,9.525022274,0.914841711,1.444426602,-0.321276962,0.490694597,0.819612232,,,
,10.23932876,2.581862416,1.106095024,-0.315771662,0.481422426,0.819468502,,,
,10.43579598,3.381768794,0.652197858,-0.30471264,0.490681957,0.809906626,,,
,10.01518767,7.198126076,-1.124773448,-0.295271152,0.489099898,0.812797554,,,
,9.599850562,8.140813536,-1.998075719,-0.307907543,0.467515392,0.819261978,,,
,12.54181695,11.40461032,-3.115171532,-0.287424261,0.489035474,0.823501121,,,
,13.35742237,15.64885248,-4.150563564,-0.298449032,0.485988175,0.822191845,,,
,17.35191223,21.13366286,-4.308413436,-0.350475331,0.46450367,0.833441081,,,
,22.77610368,25.25460451,-3.742273839,-0.341095515,0.436639857,0.851051172,,,
,34.49205927,26.91835936,-3.000637269,-0.369474516,0.440537717,0.862588379,,,
,46.15650595,27.73173024,-4.945886279,-0.363254128,0.399573293,0.879467482,,,
,47.67988613,50.42143189,-5.419092122,-0.309653109,0.447246177,0.876784098,,,
,61.35827946,53.90306722,-8.235408868,-0.282720795,0.504398165,0.83663843,,,
,71.02184293,67.15128384,-11.75686477,-0.267846381,0.488818349,0.865029766,,,
,85.4939547,80.4926061,-13.56042132,-0.309608155,0.490453007,0.873758308,,,
,104.0130393,95.40297328,-16.73970683,-0.303319062,0.488877166,0.877498471,,,
,125.6310233,109.793725,-28.01288063,-0.237182875,0.431643731,0.865773496,,,
,140.3264168,130.9602757,-35.40415078,-0.248793272,0.527498879,0.820363609,,,
,158.5137588,154.7122411,-42.53151657,-0.240199185,0.521211213,0.844252497,,,
,181.2230556,179.3463323,-47.11999178,-0.263789908,0.49668002,0.822977166,,,
,206.8253882,208.3762703,-55.65356788,-0.213294597,0.428865341,0.766503262,,,
,244.7811492,254.9380866,-65.82540221,-0.210783792,0.469130887,0.723771967,,,
,290.1951018,311.1846658,-76.6398087,-0.245267176,0.514158919,0.674897554,,,
,344.6133727,348.4598103,-74.88735999,-0.673085321,0.804854638,0.836021101,,,
,318.0454343,337.3511326,-80.70912685,-0.695544546,1.108590622,0.495105097,,,
,341.8868384,269.6912915,-43.00816016,-1.843682773,1.500521305,1.173445872,,,
,317.8306897,227.5736796,-60.7238433,-1.260154536,1.328750357,0.247227523,,,
,330.018075,179.690107,-37.85480586,-1.480320999,1.705920387,0.829759735,,,
,295.468147,125.4251596,-74.7243535,-0.650830275,1.372096942,0.941562691,,,
,267.8398356,132.3334263,-103.0813526,-0.6259316,1.333068909,1.042748114,,,
,229.5654528,91.44629864,-105.82032,-0.717357492,1.310129766,1.061888787,,,
,140.6496223,32.47043498,-89.2665953,0.400337819,0.651049032,1.083310805,,,
,41.79171346,-51.23228176,-52.80310285,-1.325222018,2.80445474,2.087638634,,,
,-108.694219,-137.2305539,2.170593311,-0.379444954,1.588496228,1.42629052,,,
,-169.6793311,-160.5543479,26.30947711,0.246490928,0.838680836,0.951153823,,,
,-192.5036205,-166.6137777,32.92754071,0.087691131,0.417382365,0.709092661,,,
,-183.3036372,-174.9328384,35.02164416,0.138306218,0.073934149,0.519154027,,,
,-160.9758157,-173.401093,32.61401821,0.111602956,0.023272375,0.475356167,,,
,-140.7462229,-180.206743,28.68776762,0.000448216,0.112813863,0.545692864,,,
,-136.048943,-196.3360206,26.08384633,-0.141420183,0.373478186,0.6707,,,
,-150.711506,-217.5022848,28.10781974,-0.243064016,0.618699185,0.768330887,,,
,-173.6351463,-239.713051,36.63555167,-0.353443629,0.739807136,0.853480734,,,
,-193.787447,-268.8426264,53.78612654,-0.517294597,0.785692864,0.883735168,,,
,-208.6431541,-296.8561946,71.7213671,-0.521863099,0.736624975,0.809120183,,,
,-209.7058762,-311.318566,81.65771578,-0.430270336,0.571053415,0.666789602,,,
,-190.3803535,-310.6826975,84.78703937,-0.343450866,0.334550051,0.519765036,,,
,-143.3178294,-292.0708511,79.24682397,-0.365431804,0.219155963,0.456299796,,,
,-98.14108129,-268.9223248,74.78434218,-0.625473293,0.473952294,0.594872171,,,
,-76.80184117,-254.4274666,69.72140062,-0.824327319,0.8083421,0.849581244,,,
,-68.81469491,-250.0773419,64.60070492,-1.050287666,1.114606728,1.21911998,,,
,-74.56398261,-259.1332836,64.02837738,-1.208082977,1.561504689,1.470003874,,,
,-96.34972874,-254.8928802,79.46775649,-1.303529867,1.749135372,1.292208053,,,
,-107.7462031,-243.3007981,96.79680771,-1.347722936,1.885856371,1.07427788,,,
,-118.7736353,-240.5271667,118.5897731,-1.557590418,1.8932316,0.923612232,,,
,-121.9336121,-251.3958323,154.6178176,-1.741193476,1.730662793,0.614995719,,,
,-134.1830487,-236.0136344,172.9193501,-1.538411621,1.763316004,0.186017533,,,
,-157.5101659,-190.8975052,171.2465425,-1.493508461,1.701153823,-0.134608053,,,
,-165.3010741,-144.3199899,172.0605437,-1.663882773,1.420445158,-0.421214985,,,
,-146.9100456,-99.60785325,182.2874965,-2.040244037,1.150099898,-0.836027829,,,
,-110.5564465,-71.162103,197.7132966,-2.621319062,1.161991131,-1.47415423,,,
,-68.69529051,-11.40575624,163.1964855,-1.948150255,0.750983588,-1.833106014,,,
,-6.507138975,78.84197199,95.50289712,-1.319636391,0.316264526,-1.400547503,,,
,23.51550572,197.9102222,29.87367566,-0.792789704,0.821994292,-0.934292253,,,
,8.316883467,234.8638227,-25.70483475,-0.598001733,0.310768502,0.281442202,,,
,-30.82134786,197.1165037,-25.30554046,-0.578376555,1.224789093,1.486081346,,,
,-78.35621837,204.4370136,-44.33048945,0.197173802,0.945985117,1.169361672,,,
,-56.2737374,214.2902834,-53.64626754,-0.386019674,-0.792011621,1.06110265,,,
,45.6358592,195.8257444,8.120416239,-0.357608461,-0.269320897,0.910677166,,,
,66.64725287,201.4204481,19.3045524,-1.387433639,0.248446993,1.265532008,,,
,66.58606098,137.831472,-16.43426303,-2.088340163,-0.044860143,1.463608767,,,
,88.14571796,84.29452485,-24.35116466,-1.302927829,0.174575943,1.152303466,,,
,86.94170445,62.82751514,-12.2465718,-0.54893476,0.854155759,0.957659021,,,
,32.91516482,96.17199724,-7.025092822,-0.415534353,1.744779613,1.128926707,,,
,4.139333591,63.17031579,-10.14490531,-0.333058308,0.265817431,0.735489602,,,
,12.52663357,49.75639977,-9.589594617,-0.914575433,0.88036106,1.048442712,,,
,-15.46733945,19.79425943,-11.85501244,-0.232696738,0.721316718,0.752748828,,,
,-24.4198623,13.03782652,-12.69296322,-0.49713262,0.570240061,0.932602548,,,
,-21.07630979,0.732927612,-10.12296103,-0.522298471,0.48485158,0.891811009,,,
,-17.40198875,2.05290778,-9.604548816,-0.446698879,0.490781346,0.895540265,,,
,-12.48108343,2.302946562,-7.432236631,-0.404136697,0.450642406,0.869616922,,,
,-9.31818451,2.970728872,-6.819916635,-0.371007543,0.45369949,0.850989195,,,
,-6.638518198,2.969296477,-4.881027457,-0.364706014,0.452141386,0.850065138,,,
,-4.598731151,2.67399403,-4.290365266,-0.345757085,0.458316208,0.834098777,,,
,-3.981369127,1.874316835,-3.723137049,-0.345762181,0.447523344,0.83252314,,,
,-1.703231638,1.373093356,-1.587551459,-0.371003976,0.421347604,0.839265953,,,
,1.373322539,1.657796084,-0.257429937,-0.372579103,0.421352192,0.839301835,,,
,2.568111429,1.547157934,1.299983941,-0.347338736,0.433658614,0.82864526,,,
,3.629974111,0.983252872,1.310354477,-0.334695719,0.446007747,0.816721305,,,
,3.189541454,1.492325873,-0.388866456,-0.314156779,0.45990316,0.797624465,,,
,2.342136875,0.886938667,-1.896662189,-0.288935576,0.481427319,0.797091641,,,
,-0.130519786,2.860090722,-4.229402556,-0.285817227,0.487535576,0.811024363,,,
,-1.471011843,4.545560668,-5.931946645,-0.314224465,0.458265851,0.822497248,,,
,-3.008028424,4.981696141,-6.925283574,-0.356801121,0.43752212,0.834309888,,,
,-0.530616214,4.07160998,-4.789927167,-0.369420693,0.425976962,0.837684302,,,
,-0.2212763,3.073173726,-4.123921026,-0.366221203,0.439905097,0.823646789,,,
,0.184549706,2.164749142,-3.766051587,-0.34334577,0.452215494,0.813821407,,,
,0.886251118,2.09702553,-4.118134153,-0.301588583,0.47676789,0.815249439,,,
,-0.54832061,2.539062469,-4.903716585,-0.333096942,0.473771356,0.816739246,,,
,-1.170209001,0.698550144,-5.285764843,-0.370949134,0.446849134,0.82687737,,,
,0.987378168,-1.197424496,-3.780031758,-0.38910897,0.422954842,0.836572579,,,
,3.56780819,-1.09446398,-1.739958232,-0.372570642,0.416741896,0.834628746,,,
,7.423241194,0.173205141,0.17417917,-0.377301631,0.415207034,0.836288175,,,
,9.608330337,1.127752828,0.006073353,-0.367817125,0.425242406,0.82676371,,,
,10.73522373,1.341466086,0.486211985,-0.356778389,0.439865749,0.826540673,,,
,13.70652556,2.226685879,1.510374044,-0.341027013,0.449064118,0.829308869,,,
,15.63332533,2.666144508,1.179662804,-0.321343323,0.461324465,0.83510265,,,
,15.2278431,4.996363861,0.730177414,-0.315806116,0.479832416,0.831903364,,,
,15.8441165,6.413746854,0.491884267,-0.334747197,0.453638328,0.838502548,,,
,17.258692,7.454524689,-0.252788979,-0.32608634,0.450527727,0.838298981,,,
,21.14867436,10.86230577,0.082334035,-0.326917737,0.428125586,0.847601937,,,
,24.22385344,16.34969446,0.013636396,-0.326905301,0.44278104,0.847630377,,,
,28.5576489,24.61420958,0.909341317,-0.366347503,0.422775841,0.865591539,,,
,37.92613911,26.84966172,0.176413705,-0.415416514,0.317802854,0.922472171,,,
,54.14731913,30.64178288,-1.785164602,-0.216638022,0.46711896,0.851382671,,,
,59.701572,50.01274109,-4.276213208,-0.390030479,0.421225076,0.88633894,,,
,66.28858129,60.57899957,-7.550667007,-0.303242202,0.484364526,0.847172273,,,
,78.07930787,72.20414134,-10.84494515,-0.342606116,0.473716106,0.838720999,,,
,88.96728215,84.54404797,-13.94481871,-0.331691845,0.461197554,0.876536493,,,
,103.4235803,105.1593559,-24.03317308,-0.282929154,0.407800204,0.883870846,,,
,121.2338587,116.0696183,-33.1598751,-0.22681947,0.541959939,0.854093272,,,
,134.5014986,139.6983977,-44.93301187,-0.222882875,0.513441386,0.845397146,,,
,151.3562554,160.9520379,-54.20134905,-0.250338634,0.526005199,0.808736086,,,
,169.3416298,187.5658702,-59.60428377,-0.339470031,0.544563609,0.866771865,,,
,195.1364189,217.5950466,-73.48263937,-0.150124567,0.495939246,0.725550765,,,
,226.2154832,265.4146772,-93.3052602,-0.191029154,0.472247706,0.700007951,,,
,274.7552643,323.5100193,-111.7663041,-0.330375943,0.554398063,0.708009684,,,
,311.6476157,362.1292655,-117.952243,-0.763018756,0.928169623,0.933146381,,,
,306.2259453,350.1707195,-115.640301,-0.701961366,1.049892457,0.520010907,,,
,309.3875837,293.3939825,-89.694251,-1.925202243,1.548311723,1.044030173,,,
,311.7698849,255.2190651,-79.08421855,-1.134842915,1.070834659,0.425759633,,,
,292.1027648,189.8193705,-72.44209071,-1.701504383,1.512252396,1.019426402,,,
,277.3462941,143.7875975,-97.50716079,-0.693447197,1.355147808,0.969707543,,,
,240.132628,143.4413591,-116.3211467,-0.679299796,1.464462181,1.01546106,,,
,186.9389971,95.38727424,-114.2872611,-0.443331091,0.944080122,0.959313965,,,
,141.7279288,48.38559825,-63.58158489,-0.307145973,1.33228318,1.402375637,,,
,-10.4151695,-94.94042446,-0.562358076,-1.083369317,2.628186646,2.002492661,,,
,-113.9430281,-150.6514027,51.46501722,0.037392864,1.288653517,1.245188991,,,
,-170.948318,-155.9694824,65.66147898,0.175778389,0.703539959,0.845230785,,,
,-179.1164616,-168.9833593,71.74566051,0.0971316,0.183136901,0.637682467,,,
,-156.1137531,-172.9659889,74.01600578,0.127204077,-0.107957492,0.489512844,,,
,-126.9514619,-177.8896444,74.23487566,-0.006717533,-0.095285117,0.508137309,,,
,-112.3660764,-193.0808755,70.07789496,-0.169046789,0.15313578,0.623481753,,,
,-127.4454088,-211.6729549,63.01922682,-0.265156167,0.474641284,0.737459633,,,
,-162.0160779,-225.4595799,61.0645813,-0.331417533,0.640322936,0.831018756,,,
,-195.2262587,-243.1242125,67.11455725,-0.463063914,0.647470642,0.880673598,,,
,-211.9610381,-264.1028903,79.93832673,-0.552051172,0.552985321,0.848315189,,,
,-213.3325271,-284.2740987,91.07364689,-0.56762528,0.474703772,0.756792762,,,
,-205.0181074,-294.150917,90.48195337,-0.486997452,0.342379307,0.602340061,,,
,-173.0607561,-287.0010913,80.00748274,-0.389118858,0.186012844,0.46843476,,,
,-125.7941444,-260.5071218,67.34969913,-0.466238838,0.281088889,0.476597655,,,
,-97.90571023,-231.5043993,56.11594482,-0.634917431,0.681998879,0.65923527,,,
,-88.74692258,-216.3295548,48.48351674,-0.931692559,1.076393884,1.032892864,,,
,-90.89923854,-231.0486113,59.18121173,-1.225721305,1.42048318,1.246260754,,,
,-99.11419281,-231.3265532,75.93432577,-1.027516004,1.622495311,1.111546891,,,
,-106.2994846,-202.7747484,90.77462022,-1.003336595,1.794243833,0.958976249,,,
,-114.524523,-185.0633625,108.5604334,-1.221265647,1.875335576,0.901917533,,,
,-120.4632878,-190.0487828,128.865542,-1.453526504,1.783676656,0.847956779,,,
,-122.3062066,-205.7924025,154.1760099,-1.634351274,1.616715291,0.677632008,,,
,-130.1278253,-205.9112913,164.1312089,-1.535267788,1.444763914,0.381985321,,,
,-137.6817009,-184.5426011,160.4858222,-1.556827625,1.3207263,0.157587462,,,
,-143.6126735,-157.2346878,157.8884899,-1.616900714,1.194602548,-0.09625209,,,
,-144.4273622,-118.9531429,154.8302704,-1.672765647,1.069623344,-0.451237411,,,
,-134.8922558,-77.22720504,149.5979625,-2.065556677,0.906569011,-0.87246157,,,
,-96.23061082,-55.9112843,130.5993696,-2.247442915,0.640193272,-1.267603364,,,
,-33.00162415,-15.48676272,81.0695746,-1.745192966,0.285550255,-1.304622528,,,
,18.2334651,47.41311698,21.33797961,-1.276914067,0.313390928,-0.88305209,,,
,38.68983455,85.0431515,-23.76462776,-0.73934261,0.812494801,-0.305896942,,,
,-16.42423627,160.0190908,-77.52405447,-0.5563316,0.425333843,0.344456983,,,
,-27.51830346,143.4387235,-77.84256171,-0.42839949,0.933618247,1.263664118,,,
,-49.26119235,168.1485597,-73.56898411,0.906794495,0.906524669,0.845285627,,,
,11.5868682,189.1656257,-34.18065671,0.060028236,-0.258677064,0.824998675,,,
,79.29099901,211.5977255,19.88673482,-0.237469317,0.187016616,0.89483945,,,
,57.55653261,203.8478984,9.782624098,-1.903581549,0.405949032,1.430740571,,,
,75.07145133,118.5129395,-14.12747765,-1.962172477,-0.320813558,1.31483262,,,
,115.0715831,86.39338384,-10.55055943,-1.072545362,0.290816106,1.032234557,,,
,98.36522238,79.63546124,8.87901236,-0.614207238,1.761251274,1.213552905,,,
,11.93854969,50.04408188,2.404130908,-0.569673802,0.760622834,1.026353211,,,
,43.58971232,59.53088787,0.715853469,-0.872186748,0.662781448,1.030726707,,,
,-0.32228876,21.775261,-2.118110377,-0.291821101,0.671333945,0.758662895,,,
,-7.18626585,20.98297496,-5.551903739,-0.391366972,0.726650561,0.894740469,,,
,-8.361975245,12.44172123,-7.028186794,-0.463136799,0.566474006,0.882071356,,,
,-7.654716143,3.89049802,-5.083166967,-0.446614679,0.521717737,0.873833843,,,
,-3.769603926,1.479262435,-3.459977533,-0.422235372,0.464585219,0.868502243,,,
,-0.182601649,-0.706571553,-1.218050977,-0.399356371,0.461492457,0.852428135,,,
,1.565206105,-0.22345354,-0.112700798,-0.355997757,0.470669725,0.839020387,,,
,3.185530749,0.217895849,-0.447938404,-0.33785158,0.473743731,0.827730173,,,
,2.173171621,-0.475612266,0.098090375,-0.320494597,0.484521611,0.819582263,,,
,3.606826616,0.242533035,0.380959638,-0.33940316,0.472241182,0.818434659,,,
,3.378674822,1.092802403,1.515358777,-0.337833435,0.470687971,0.819950459,,,
,3.735226458,0.586021233,1.619178729,-0.347297146,0.460682161,0.821701325,,,
,3.369679385,1.433712291,1.00365017,-0.334665138,0.472245158,0.813662691,,,
,2.364482229,0.519844608,-0.662453803,-0.318869929,0.489210092,0.802453313,,,
,0.218354216,1.16722962,-1.356191101,-0.304678186,0.492271967,0.797471764,,,
,-1.848992101,1.474277703,-3.182436777,-0.293638226,0.496111315,0.793340979,,,
,-1.959114589,2.567194697,-4.151652184,-0.326768094,0.47764526,0.807274618,,,
,-1.241198472,0.042513468,-3.390019386,-0.350456269,0.455286035,0.823317431,,,
,1.423628234,-0.086058261,-2.274642447,-0.349692253,0.456790928,0.832630887,,,
,0.925441431,-0.215890497,-1.612704306,-0.353606014,0.470704281,0.828083384,,,
,1.524640693,-1.543949371,-1.564805034,-0.305512946,0.495288583,0.816152497,,,
,0.368698341,0.420264543,-3.984463099,-0.271631397,0.498292966,0.810721916,,,
,-3.647105549,-0.399523471,-6.357253216,-0.292855556,0.51228053,0.800350663,,,
,-6.715695613,-1.180063875,-7.380842317,-0.344874006,0.483103262,0.806143425,,,
,-6.908324023,-1.168203648,-7.023889611,-0.359891233,0.464581448,0.820441386,,,
,-3.511429143,-0.311803632,-5.275279716,-0.372551274,0.432177574,0.832326504,,,
,-0.331169606,0.176241818,-3.942579884,-0.375713761,0.42523578,0.834717023,,,
,2.837745368,-0.158480126,-2.82210362,-0.356005301,0.439842712,0.831964322,,,
,3.96503983,0.463179082,-2.338412649,-0.342575739,0.460662487,0.823148318,,,
,6.349804765,1.20578968,-2.711751949,-0.326819572,0.470638022,0.824363201,,,
,6.991689382,3.497907339,-4.22854312,-0.304752396,0.482921203,0.822329562,,,
,6.072149417,5.86766078,-5.097433616,-0.300026809,0.482907441,0.822221713,,,
,7.324405974,8.610467041,-6.909412643,-0.323665036,0.47063476,0.822736697,,,
,8.507220046,11.10226049,-6.874061147,-0.320526606,0.473690316,0.828112334,,,
,11.47663112,13.8973205,-6.659832227,-0.30954842,0.453558919,0.839482569,,,
,15.16963058,18.93763023,-6.312848987,-0.321368807,0.445879918,0.839737003,,,
,19.64517581,25.3186039,-5.378412119,-0.353691131,0.428980938,0.846659429,,,
,27.28384913,29.77449667,-3.698156089,-0.393206218,0.371892253,0.880096126,,,
,43.89653122,28.46070444,-6.30792155,-0.350648726,0.418802243,0.883881651,,,
,46.64437951,50.78755192,-6.872113091,-0.327070948,0.408646789,0.898870744,,,
,61.41700764,55.18666457,-11.10598472,-0.271788889,0.498068094,0.869801733,,,
,71.37295147,68.66606966,-15.54577738,-0.319131397,0.437219674,0.883976453,,,
,86.208032,82.10422179,-19.19282563,-0.345776453,0.472155963,0.845786137,,,
,96.59518386,101.4339843,-29.86708665,-0.268946789,0.383598879,0.948799898,,,
,122.0645903,116.1583121,-35.20458958,-0.257586646,0.513471356,0.864844139,,,
,136.7450295,140.0487041,-44.84993299,-0.225293476,0.486415902,0.854727013,,,
,156.9825863,164.3255562,-56.26371064,-0.207132824,0.491821713,0.838777166,,,
,180.4520263,198.0087709,-66.31528112,-0.287560754,0.572044241,0.901399083,,,
,205.9597635,228.9562841,-80.09302534,-0.107036086,0.445409684,0.794428746,,,
,245.923627,283.6772485,-104.6757222,-0.126578389,0.453381651,0.742031804,,,
,299.3642027,342.3536272,-127.0637043,-0.309124159,0.660633028,0.746599286,,,
,325.5535306,383.2361712,-127.4560085,-0.862286137,1.055531498,0.987739551,,,
,307.2115473,376.7593417,-127.2413785,-0.791752396,1.06555423,0.529084608,,,
,297.8844246,284.8759908,-90.235868,-1.95862844,1.333325994,0.810396942,,,
,348.3659025,236.535026,-58.28138151,-1.279998063,1.382930377,0.618569521,,,
,291.6190738,168.7307995,-81.03536902,-1.169914781,1.445169215,0.999402345,,,
,283.8683873,143.8874068,-97.45490704,-0.932968196,1.304865953,0.993725688,,,
,241.3890098,87.17535664,-86.35258925,-1.310771152,1.468096738,0.963792355,,,
,166.0099948,3.580757036,-70.46487066,0.159508869,0.592322222,1.300118552,,,
,85.30843096,-49.7614991,-31.20339611,-1.153173293,2.340676249,1.802194495,,,
,-85.23148273,-152.4932328,21.8812582,-0.404590112,1.817462283,1.478615291,,,
,-134.7158421,-159.7327265,47.59944286,0.445122528,0.7004263,0.842970642,,,
,-159.0017469,-143.3730052,54.32315988,0.257981448,0.315436799,0.608622528,,,
,-142.4154209,-140.3161035,64.37851189,0.210751784,-0.004876758,0.497137717,,,
,-119.4908638,-134.3476595,65.51491638,0.164342915,0.00150632,0.477997859,,,
,-106.5456846,-140.8716434,63.24439923,0.018458002,0.140345872,0.593530173,,,
,-108.9125732,-157.2560018,63.11439511,-0.158186137,0.40401896,0.765975535,,,
,-131.4699216,-183.6966862,68.17962849,-0.30162946,0.643116922,0.883980428,,,
,-162.5422823,-210.1948384,77.17489399,-0.37572314,0.731072987,0.93636789,,,
,-191.4190687,-235.5179686,86.45875833,-0.443389501,0.697467482,0.902087971,,,
,-205.075575,-257.6642771,93.19227293,-0.491355046,0.574453517,0.834536188,,,
,-201.7112815,-280.701936,94.34580886,-0.567672273,0.473096024,0.773891845,,,
,-180.3170947,-299.7382869,88.72560855,-0.55010367,0.343192151,0.641091947,,,
,-136.5564691,-296.0114829,77.3173313,-0.526151886,0.251907951,0.489566361,,,
,-95.09873269,-273.6285428,65.99717496,-0.585704791,0.488260245,0.452520489,,,
,-72.68513941,-243.0990597,49.54262922,-0.628456473,0.802392457,0.637558512,,,
,-60.61670019,-234.3286228,43.92277269,-1.086789195,1.280316922,1.079580836,,,
,-72.16707097,-255.0733619,63.13496429,-1.253737615,1.736912742,1.221867074,,,
,-92.42542621,-247.1298178,88.99346632,-1.083756779,1.946895413,1.041950255,,,
,-108.3193327,-233.3524746,121.965354,-1.299975025,1.992737717,0.922597655,,,
,-129.2950884,-234.3377329,153.1984293,-1.437545668,1.941120183,0.812143731,,,
,-147.8504985,-224.0746836,179.9919411,-1.396319776,1.560808359,0.587367482,,,
,-152.2689772,-201.5939397,193.3016361,-1.366099388,1.297659735,0.392609786,,,
,-157.1219297,-170.6486611,186.9388252,-1.372133435,1.207151274,0.263534353,,,
,-163.6275217,-139.1344354,173.6780035,-1.491533435,1.153249847,0.130896636,,,
,-160.8000322,-113.2783398,156.0762817,-1.624803874,1.006607951,-0.146188583,,,
,-131.7300445,-94.86129898,141.4782338,-2.178983282,0.765539857,-0.614412029,,,
,-72.47767139,-96.1575587,114.524523,-2.33503843,0.612466667,-1.209693272,,,
,-1.91768974,-56.18332466,64.62694639,-1.669334964,0.364267074,-1.374602446,,,
,45.11784806,20.00923319,4.038779498,-0.707777472,0.495026911,-1.023153313,,,
,6.357883469,172.7890022,-64.76537299,-0.632375433,0.919003976,-0.811055759,,,
,-38.1407118,232.5200243,-125.7522612,-1.066788685,0.620409684,0.15903629,,,
,-48.01615506,182.0556205,-109.0693345,-0.849130479,0.81597737,1.29401366,,,
,-79.35064392,170.1880603,-88.71575367,0.031553721,0.95847105,1.261776962,,,
,-2.948097039,152.2052642,-37.21383798,-0.192830785,-0.12353629,1.185487768,,,
,39.8607884,186.1772497,0.704050539,-0.001048522,-0.11777686,0.738051988,,,
,67.90174396,196.2990648,8.33516082,-1.506522222,0.216204893,1.31870999,,,
,72.08599745,124.723229,-11.00926944,-1.880188991,0.158244648,1.439050357,,,
,80.65864927,81.39444167,-14.71172271,-1.068691641,0.320730071,1.073403466,,,
,78.68343457,66.5328332,-0.153151619,-0.422668807,0.842591335,0.856814781,,,
,-0.152062999,87.18360723,-13.61760251,-0.640525484,1.528967278,1.262669623,,,
,-2.362591468,82.71889091,-21.1005459,-0.340982467,0.067777676,0.690197859,,,
,-18.30594426,48.34382963,-19.52823512,-1.034517125,0.905037615,1.144504485,,,
,-25.12299611,30.5613969,-20.64510175,-0.301384506,0.680445973,0.803983588,,,
,-34.54230767,17.51199664,-22.17054459,-0.39308104,0.458356269,0.86082946,,,
,-25.51478465,10.02933972,-16.28712747,-0.500275943,0.446994699,0.890457492,,,
,-15.06099779,5.323293579,-10.58293155,-0.431759327,0.398253925,0.874808155,,,
,-8.281245492,4.152282437,-6.438040265,-0.410457594,0.395162793,0.859547299,,,
,-2.116391504,2.220211456,-2.506174692,-0.475020693,0.406164526,0.857154128,,,
,4.179039566,0.627216898,2.859918834,-0.434873089,0.382907238,0.856193272,,,
,6.285748083,-0.439859699,4.939411856,-0.374110907,0.467643017,0.837872783,,,
,5.80154145,-0.98382583,3.69460375,-0.386683384,0.453083486,0.822584404,,,
,5.603355349,-0.973226111,4.052072119,-0.372495719,0.470777064,0.823850255,,,
,3.845635425,0.597537685,2.032625074,-0.345749439,0.472194393,0.835680428,,,
,4.040727554,1.544808807,1.373952793,-0.347307136,0.466060856,0.827153313,,,
,3.905280332,2.354856538,-0.421582346,-0.32362844,0.484554434,0.813435168,,,
,2.366602173,2.945919799,-1.311844168,-0.339364526,0.473837105,0.804445056,,,
,2.691984905,1.858789679,-0.236688865,-0.369354842,0.435315902,0.815935984,,,
,5.41708677,-0.2267194,1.840283142,-0.36938787,0.418319776,0.822899388,,,
,5.900663149,-0.38772054,3.285454589,-0.368594088,0.4183263,0.820549337,,,
,9.403268742,-0.925097656,6.055017979,-0.364591335,0.421488991,0.797144546,,,
,13.66452775,-2.361445553,6.257157489,-0.334602141,0.453845464,0.784086952,,,
,17.95305955,-5.021459412,8.097096857,-0.312551886,0.504624465,0.800784709,,,
,17.5152625,-7.042739922,6.995814679,-0.290532518,0.533788277,0.822104893,,,
,10.92722189,-8.334931637,5.559008416,-0.31734159,0.516873191,0.828901631,,,
,5.759429052,-9.340186089,3.72909581,-0.333156575,0.462130275,0.835373598,,,
,4.183623228,-7.419345081,3.003100987,-0.367850255,0.439832824,0.84389419,,,
,5.580379741,-6.575607432,4.057400626,-0.380437411,0.427563609,0.834829256,,,
,5.675719919,-5.772263307,3.70600561,-0.366216412,0.455320082,0.826786137,,,
,6.163708073,-4.587443882,2.539807314,-0.352765341,0.474629664,0.809416106,,,
,5.218728781,-3.067787922,0.532621566,-0.345684709,0.475368502,0.812365443,,,
,5.42115477,-1.708044483,0.082448627,-0.34097421,0.472251682,0.816915902,,,
,5.296593746,0.274389488,-1.704033778,-0.340985729,0.468383078,0.820017839,,,
,6.316458621,2.598363601,-2.136273139,-0.322087666,0.46832212,0.821141488,,,
,7.4258768,4.952074223,-3.286142138,-0.318953007,0.464438532,0.825726402,,,
,7.906359207,7.990125636,-5.365692456,-0.277961264,0.485943323,0.817838022,,,
,7.707370964,11.72861795,-6.318120198,-0.274082059,0.472750968,0.835602243,,,
,11.59586363,16.19539692,-6.38435412,-0.29697054,0.455029358,0.848526504,,,
,16.41781914,22.45937261,-5.908741854,-0.330076249,0.438138532,0.85391213,,,
,23.41334734,27.46450273,-3.148632267,-0.397059021,0.413627013,0.861609888,,,
,38.16878673,26.4046454,-2.702584624,-0.401146789,0.334843527,0.892641896,,,
,50.00334458,29.3409968,-4.831581199,-0.177076656,0.539681855,0.80553792,,,
,55.1741168,47.16554192,-6.213097035,-0.352197044,0.435794088,0.879286239,,,
,61.15018119,58.69310898,-9.795859423,-0.276433231,0.505901835,0.841939246,,,
,71.08085759,69.91775326,-14.66273482,-0.300086748,0.495148216,0.848676147,,,
,84.04694978,82.53663304,-20.29708719,-0.325198063,0.515382977,0.821304587,,,
,96.26458722,100.5696202,-30.12898566,-0.289917125,0.433387564,0.854541998,,,
,112.5175091,116.9135851,-34.96984877,-0.271769725,0.501177166,0.863588787,,,
,126.0570748,141.1815563,-45.65556895,-0.208716106,0.516467686,0.849744037,,,
,144.2371402,165.881022,-58.53256621,-0.214980326,0.520390112,0.837457288,,,
,167.2019189,194.8270217,-67.08470615,-0.309551784,0.586063609,0.883272069,,,
,193.7159992,222.8822439,-80.45668165,-0.137644343,0.489566157,0.768783996,,,
,228.9785148,272.9295916,-105.1429693,-0.138292355,0.473589297,0.711245464,,,
,282.0406519,325.7579046,-130.4695373,-0.306030071,0.577339857,0.740924465,,,
,310.9545087,370.2901325,-145.4730102,-0.602183588,0.899434149,0.85790948,,,
,294.5890579,354.5921775,-144.0877701,-0.832847299,1.093208053,0.5914842,,,
,304.2519911,307.4299588,-112.590905,-1.959870133,1.505250255,1.036185729,,,
,326.5213709,256.6424069,-84.21986845,-1.152079918,1.020937411,0.376306218,,,
,293.6635591,196.6923431,-88.52633383,-1.572366259,1.465613456,1.011727013,,,
,263.5805247,170.6797727,-122.3687735,-0.699566157,1.457119164,0.934289704,,,
,221.4540893,158.1033491,-132.4362723,-0.873084709,1.569748318,1.067501937,,,
,146.0815486,100.0433012,-126.230681,-0.390051274,0.991294393,1.077122222,,,
,68.61375861,49.17542057,-54.17195632,-0.282371254,1.719881957,1.687070031,,,
,-75.44570736,-104.1446477,30.55406305,-1.070000612,2.560323038,1.988063201,,,
,-156.8288618,-155.2018335,85.99156854,0.161147604,1.097379715,1.142495617,,,
,-199.8014412,-157.4407234,94.03732838,0.210524363,0.551030377,0.760966463,,,
,-196.222575,-163.1768331,93.08856757,0.150776147,0.050597452,0.560799592,,,
,-167.8635705,-161.4058778,84.22628557,0.14068369,-0.123275331,0.450309276,,,
,-139.6817246,-167.2857426,73.06850547,-0.027189602,-0.015866259,0.532079205,,,
,-130.9911581,-185.7282227,61.8682119,-0.195053007,0.298025178,0.676439042,,,
,-146.0425875,-210.0940551,57.5390001,-0.296743731,0.570913761,0.800554128,,,
,-171.1885019,-235.4577508,62.61884391,-0.391271662,0.712149032,0.854288991,,,
,-194.7472659,-259.8051339,76.04994865,-0.478634862,0.724044852,0.837648318,,,
,-208.1887412,-282.6804166,92.19452422,-0.510717431,0.662804587,0.740317023,,,
,-207.5681706,-295.0692538,101.7129575,-0.480603568,0.522768603,0.625089806,,,
,-184.7702946,-298.2783904,104.2991171,-0.412598267,0.324195923,0.457580734,,,
,-138.38684,-276.1688085,99.90642155,-0.382519368,0.238038226,0.372775331,,,
,-101.0862562,-242.2501081,90.58302313,-0.543225076,0.560482467,0.493668909,,,
,-90.76149948,-214.7477329,80.1206419,-0.707503466,0.931638838,0.788859837,,,
,-94.22015921,-209.7716517,76.92244879,-1.125633843,1.304721611,1.183120999,,,
,-108.4116935,-224.5930386,83.3679948,-1.194970948,1.514432008,1.262844648,,,
,-119.9906549,-220.2790101,89.68118756,-1.158348012,1.695163201,1.172193884,,,
,-133.1617514,-219.9276151,103.8767899,-1.321827319,1.905675739,1.115701733,,,
,-144.2183472,-232.229993,130.7392859,-1.485253007,1.852786544,0.954531498,,,
,-143.8155578,-240.5707115,158.7490725,-1.486040673,1.673641081,0.60129368,,,
,-143.8885527,-221.8486853,166.0829896,-1.346434047,1.616100917,0.207781549,,,
,-141.7556027,-186.6692486,160.4180986,-1.39628104,1.509189399,-0.035370948,,,
,-131.424658,-156.5871309,158.7376134,-1.543215392,1.360653211,-0.209541692,,,
,-112.8235259,-125.0589823,161.7587052,-1.707244444,1.178601529,-0.481330989,,,
,-86.29168383,-95.24879034,171.4878724,-2.202398879,1.060562589,-0.894692049,,,
,-58.26413548,-66.39893296,160.0067149,-2.097196024,0.99808787,-1.383040265,,,
,-21.16614957,5.764814856,106.7424956,-1.436805708,0.521023242,-1.400584811,,,
,24.60561522,80.78601779,46.15593299,-1.149297859,0.402423649,-0.8671316,,,
,-1.603365094,202.8351382,-10.79744695,-0.678491947,1.029452497,-0.610793272,,,
,-38.86452938,260.3340885,-69.58257295,-0.704813863,0.552646075,0.248593884,,,
,-59.28228148,212.2177231,-46.31905407,-0.69497788,0.859133028,1.385417227,,,
,-96.03019018,204.1254391,-42.70157044,0.074570234,0.495315902,1.52107054,,,
,-4.973903915,155.7420754,17.39058689,-0.433981957,-0.433518247,1.146848828,,,
,52.06627913,196.8886384,16.64110079,-0.448961672,-0.504017431,0.834568094,,,
,76.46419714,174.6641212,-3.161409226,-2.003105607,0.004447197,1.412013354,,,
,74.38728243,97.3997312,-30.008951,-1.924256677,0.095253517,1.40572946,,,
,89.68731821,65.16655804,-25.77456371,-0.787161366,0.497617839,0.988821407,,,
,87.38546027,63.09560209,2.406651923,-0.168991947,1.087714475,0.902814475,,,
,3.300981745,81.56655819,-5.599459236,-0.760504791,1.304749745,1.292949847,,,
,11.39028638,81.25796313,-14.18167946,-0.418250663,0.066341488,0.723049643,,,
,-20.41546027,32.63384255,-10.22901552,-0.835780428,0.912539653,1.0436,,,
,-17.49646949,27.52575191,-12.63469341,-0.434801427,0.715824159,0.936130377,,,
,-22.61367015,12.23121653,-13.8634587,-0.486089195,0.483176758,0.897978084,,,
,-20.1421594,6.01617144,-10.43035289,-0.509667074,0.481005505,0.879078287,,,
,-14.13251968,4.587501178,-9.495056581,-0.40653894,0.438266463,0.880530071,,,
,-13.02573711,6.653529692,-10.02842299,-0.352041896,0.5015,0.842099796,,,
,-10.41310686,6.874175739,-9.170361398,-0.355218247,0.466033435,0.840548114,,,
,-11.06627874,5.928508898,-8.567838981,-0.372562997,0.474533129,0.850288073,,,
,-8.673034032,6.410538291,-5.910059657,-0.389897248,0.436823547,0.841281651,,,
,-6.827365087,3.850161792,-4.516511707,-0.402522732,0.41833629,0.84464261,,,
,-3.02166482,1.832147141,-1.756230234,-0.396255657,0.400550459,0.851460754,,,
,-0.756877247,3.187707989,-0.42925998,-0.371797757,0.421340979,0.841616004,,,
,0.167819338,2.801076069,0.351910678,-0.361511825,0.430623445,0.826630479,,,
,1.166542071,3.127031758,-0.505921733,-0.344141386,0.447583894,0.815385117,,,
,-0.184778889,2.126590152,-1.715034568,-0.333091947,0.455288787,0.808929664,,,
,0.61959656,3.11574449,-2.571148106,-0.337848726,0.4429316,0.816787258,,,
,1.438410545,1.298666138,-2.007873297,-0.368607951,0.419076962,0.825992355,,,
