Packet number,Gyroscope X (deg/s),Gyroscope Y (deg/s),Gyroscope Z (deg/s),Accelerometer X (g),Accelerometer Y (g),Accelerometer Z (g),Magnetometer X (G),Magnetometer Y (G),Magnetometer Z (G)
,-0.170397648,1.754912431,-0.579604106,-0.345490724,0.464653619,0.819473293,,,
,-0.892152583,1.539251117,-1.054127751,-0.345488583,0.462345566,0.817914067,,,
,-0.684799157,0.938676756,-0.695914538,-0.348640877,0.460040775,0.817981448,,,
,-0.888371061,0.685945072,-0.649390365,-0.347069827,0.460030275,0.819500306,,,
,-0.186956129,0.313006843,-1.105292883,-0.348649134,0.46002895,0.821090928,,,
,-1.076301218,0.660677634,0.170340352,-0.345496024,0.458482977,0.819461366,,,
,-0.891980695,0.528037904,-0.805120294,-0.343923649,0.460015189,0.82098318,,,
,-0.775097305,1.006457663,-0.131608406,-0.342349745,0.45846789,0.820944241,,,
,-0.989383521,0.938791347,-0.700784679,-0.34235107,0.456925178,0.820941284,,,
,-0.898798893,0.51709441,-1.165166972,-0.345498777,0.460019776,0.821019062,,,
,-0.371391243,0.949964024,-0.280405545,-0.347075331,0.458481651,0.821051988,,,
,-1.093719135,0.683252171,-0.755043782,-0.34549684,0.462333741,0.821023547,,,
,-0.674944283,0.549753004,-0.081761077,-0.347072681,0.461566972,0.821058002,,,
,-1.291962532,0.238006668,-0.350019917,-0.343915392,0.460027013,0.8178737,,,
,-1.952239095,0.290833377,-0.358786171,-0.343923649,0.460015189,0.82098318,,,
,-0.979356759,0.096887163,0.064400456,-0.345497248,0.456940265,0.819458308,,,
,-0.877943229,0.550669737,-0.084740458,-0.350224159,0.455411417,0.819563099,,,
,-1.080254627,0.553018864,-0.03598175,-0.351799286,0.455416004,0.819599083,,,
,-0.66669369,0.966694392,0.229870667,-0.347075331,0.458481651,0.821051988,,,
,-1.683178115,0.213713258,0.467247082,-0.345492559,0.460028644,0.818686952,,,
,-2.310910675,-0.368698341,-0.317418619,-0.342344343,0.460016514,0.819392457,,,
,-2.516545228,0.133728349,-0.573186978,-0.345493374,0.461568298,0.819467278,,,
,-2.29807642,0.561097569,0.101241642,-0.345493782,0.456174924,0.817902141,,,
,-1.889614808,0.206952356,0.257544529,-0.337632926,0.453048828,0.822380734,,,
,-1.180923312,0.553935596,0.013464508,-0.343143425,0.456150255,0.822512436,,,
,-0.930139685,0.193717031,-0.088636571,-0.347083996,0.453076351,0.822596228,,,
,-1.393662541,-0.874390891,-0.103075107,-0.34707788,0.45539633,0.821045973,,,
,-1.077790908,0.60641853,0.066864175,-0.346294495,0.455388073,0.822582773,,,
,-1.497482493,-0.574562077,-0.307792928,-0.349441998,0.45386055,0.821096942,,,
,-1.176282353,-0.549351934,0.570780556,-0.342351886,0.458464934,0.821721611,,,
,-0.716082652,1.018948143,0.280634728,-0.34392895,0.456155556,0.821753007,,,
,-1.527219003,0.166558831,0.622862419,-0.343930377,0.456923853,0.822531906,,,
,-0.514458804,0.30830859,0.380787751,-0.343930377,0.456923853,0.822531906,,,
,0.182601649,0.584989909,-0.481571027,-0.345509684,0.456922528,0.824122528,,,
,-0.659073352,0.876969201,0.64022304,-0.343931091,0.456152599,0.822530377,,,
,-0.171543564,0.386975695,-0.333919803,-0.343931702,0.455381244,0.822528848,,,
,-0.729776344,-0.113961305,-0.139457927,-0.347077268,0.456167686,0.821047503,,,
,-0.980445379,0.144557252,-0.038273581,-0.34629368,0.45384842,0.821802446,,,
,-0.261211459,0.255138106,0.332315521,-0.34550683,0.45307472,0.821782977,,,
,-0.669673071,-0.20064982,0.374657102,-0.343142813,0.456921611,0.822513863,,,
,-0.561555935,-0.24110064,0.735563217,-0.339990418,0.456915392,0.82166473,,,
,-0.3638282,0.355348425,0.280290953,-0.340778695,0.45845739,0.822462997,,,
,-1.075098007,0.257888304,0.321486619,-0.346288991,0.456936697,0.821030989,,,
,0.141749759,0.602980784,0.083938317,-0.347069113,0.45849052,0.818719878,,,
,-0.483118013,-0.278629376,-0.497327366,-0.34707788,0.45539633,0.821045973,,,
,-0.872156356,-0.047670089,0.372880933,-0.339209786,0.458443935,0.824759225,,,
,-0.369557778,0.041768623,0.020511889,-0.342364832,0.455364832,0.825602446,,,
,0.243392471,0.398320259,0.083422655,-0.345513863,0.456916616,0.825677268,,,
,0.556571202,0.965663068,0.349103185,-0.347091641,0.453835882,0.825707136,,,
,0.451548038,0.254278669,0.393622005,-0.343934557,0.456917941,0.824086544,,,
,0.459111081,1.176110466,0.555253399,-0.345505607,0.45692844,0.822567788,,,
,0.907908922,0.553935596,0.248090725,-0.34629735,0.456924873,0.824140469,,,
,0.753439501,1.359972623,-0.056149864,-0.345507136,0.460007849,0.824128542,,,
,-0.37482899,1.954301743,-0.73539133,-0.345505097,0.462321916,0.824133028,,,
,1.07166026,1.786482405,0.569004386,-0.351788379,0.45851315,0.816495617,,,
,-1.076186627,1.015338509,0.07127595,-0.358094088,0.460065341,0.818974312,,,
,-2.610166531,2.67290541,-0.81222497,-0.342338838,0.461565036,0.817840775,,,
,-3.344068171,3.54907247,-2.203996751,-0.337610703,0.464636595,0.81773894,,,
,-3.643495915,3.556750105,-1.952239095,-0.328174414,0.456883894,0.820617941,,,
,-5.069473276,4.012595327,-2.224680527,-0.336836595,0.458451784,0.820818552,,,
,-3.741758177,3.259900671,-1.749010965,-0.351802446,0.449248318,0.818809684,,,
,-2.740170655,1.917460557,-2.2087523,-0.34708736,0.449219674,0.822588787,,,
,-2.212132751,2.250692811,-1.222577343,-0.337631397,0.449969419,0.82081998,,,
,-2.214252695,3.004361495,-1.575977711,-0.347092966,0.452293272,0.825704179,,,
,-2.110031672,1.949431602,-1.119215757,-0.35337788,0.453874924,0.820409378,,,
,-2.014806087,1.535011229,-1.37779161,-0.365975535,0.44621315,0.816795005,,,
,-1.739843641,0.606475826,-0.045149074,-0.358107645,0.441556269,0.81816106,,,
,-0.569806527,0.401414231,0.071848908,-0.350233333,0.444612742,0.819542202,,,
,-0.052311047,-0.646124506,0.841904184,-0.35022895,0.439996534,0.816423751,,,
,-0.258518557,-1.461156969,0.781342545,-0.36600632,0.424597961,0.821417227,,,
,-1.671031409,-0.62773256,1.231515485,-0.358107441,0.436934149,0.816597452,,,
,-1.678823636,0.017933579,0.671506536,-0.364397248,0.440049745,0.813637615,,,
,-2.488928662,-2.346032988,1.516963058,-0.369107136,0.44393792,0.809088685,,,
,-1.477543562,-3.874168723,1.672406508,-0.353357492,0.446200102,0.810288685,,,
,-2.206460469,-5.51483337,1.289269631,-0.331296024,0.461556575,0.811370438,,,
,-2.765609981,-5.210249006,1.28262332,-0.301368909,0.474564322,0.815377472,,,
,-0.886652188,-5.322777917,1.10288646,-0.323443833,0.467662895,0.822085831,,,
,-1.67618803,-5.585880136,2.274928926,-0.369144852,0.453128848,0.826208563,,,
,-2.49832517,-7.116651478,2.097312009,-0.373908155,0.447695923,0.838743629,,,
,-3.322009296,-7.787756943,1.822292267,-0.336107441,0.467610805,0.845693986,,,
,-3.740211191,-4.926692193,0.449370799,-0.324297757,0.46757054,0.846979307,,,
,-4.165918833,-2.934002277,-1.032813722,-0.315617023,0.468340265,0.840564322,,,
,-2.783944631,-0.34984803,-1.302963322,-0.320360754,0.456772171,0.843759123,,,
,-2.21975309,1.37263499,-1.58984329,-0.342422936,0.442955352,0.843457696,,,
,-0.469195138,1.050059751,-0.282811968,-0.339260958,0.44450367,0.839502141,,,
,0.481571027,1.983980957,-1.290472842,-0.342396228,0.447615902,0.8349158,,,
,0.253763007,2.583638586,-0.054488286,-0.348692049,0.44610051,0.832724363,,,
,1.252543036,2.80485759,-1.016312537,-0.342379613,0.447639653,0.82869684,,,
,0.971392646,2.390494513,0.365260594,-0.347098267,0.446122528,0.825692253,,,
,0.967954899,1.780294461,0.411727472,-0.337633639,0.452277574,0.822379205,,,
,0.95408932,1.759839868,-0.256914275,-0.334466871,0.456914067,0.817652192,,,
,1.829167761,2.581919712,0.070015443,-0.339197757,0.453068196,0.818529867,,,
,1.494503113,3.018971918,0.993909887,-0.343942202,0.443039857,0.822504995,,,
,2.621797575,2.828176973,1.573342105,-0.332909378,0.450721101,0.822268502,,,
,3.803523027,3.096092038,2.106192855,-0.347093884,0.441506422,0.822573802,,,
,6.520832666,1.810145562,3.676211805,-0.343949134,0.444570744,0.825617431,,,
,8.851052019,0.626987715,3.545520132,-0.350255556,0.447662589,0.828876453,,,
,8.045931725,-1.375156004,4.599304109,-0.343938124,0.459994393,0.826424669,,,
,7.539723513,-1.36896806,4.746898037,-0.340780428,0.466158919,0.82558736,,,
,5.684543469,-1.857357284,3.534920413,-0.345500917,0.46001682,0.821796432,,,
,4.879709654,-1.487742211,3.886258133,-0.340778084,0.459228746,0.822464526,,,
,5.184007539,-1.387417301,3.84082258,-0.349432824,0.464659225,0.821117839,,,
,3.949512673,-1.809114238,3.254915938,-0.339182161,0.473891335,0.819347604,,,
,2.629417913,-1.649831971,3.289465293,-0.345475637,0.467756779,0.814815087,,,
,2.62363104,-1.307145914,2.829036409,-0.351788379,0.45851315,0.816495617,,,
,2.625178026,-1.00365017,2.779418264,-0.349441998,0.45386055,0.821096942,,,
,2.508810298,-1.024505833,2.10951601,-0.337609582,0.470801427,0.819305708,,,
,2.713642709,-0.973054223,2.163832409,-0.33446473,0.469243629,0.820785525,,,
,1.592879966,-0.920342106,2.097483896,-0.328144241,0.475416616,0.815212334,,,
,1.995726592,-0.627045011,1.744771078,-0.33130999,0.464618247,0.817595311,,,
,3.215897513,-0.836976747,1.707872596,-0.331344241,0.458406218,0.828466361,,,
,3.950028335,-0.147250153,2.700521976,-0.331352701,0.463016412,0.83313945,,,
,6.094093701,1.225098358,2.894926556,-0.31795474,0.478398165,0.834418756,,,
,6.507024384,3.154591028,2.761713868,-0.314007645,0.489185423,0.834349949,,,
,7.861668499,4.98673817,1.250938754,-0.309308053,0.482971356,0.842003772,,,
,9.658177665,10.66039544,0.496296042,-0.314083792,0.477520693,0.859202956,,,
,15.04598629,16.04276097,-0.981533999,-0.298369317,0.509007747,0.88300316,,,
,19.7512303,28.89179789,-2.932054221,-0.207084811,0.524041081,0.914376147,,,
,42.00605698,50.15907451,-4.266186447,-0.213521101,0.466856371,0.947058308,,,
,73.54182591,68.13270325,-5.954234703,-0.318376656,0.400755759,0.967975127,,,
,85.39672376,96.24499206,-20.01502007,-0.051933741,0.093343731,1.070123344,,,
,111.8073852,101.0804121,-20.11832436,-0.388350051,0.61299419,0.991750663,,,
,119.9732943,124.3485146,-54.43116242,-0.653729154,0.41932579,1.216625484,,,
,203.1313001,91.99318685,-38.76397529,-0.920153823,1.032198471,0.909862793,,,
,198.3536342,52.45589043,-21.97121257,-1.05090265,1.494806116,1.064548726,,,
,151.8459624,43.27796598,-26.24158161,-0.934287768,2.14126157,0.954330887,,,
,75.73613967,54.0962113,-33.49138848,-0.624781855,1.491659327,0.74545525,,,
,66.05848144,64.23813723,-44.63822509,-0.743060143,0.823097554,0.58593843,,,
,89.3493304,54.70910425,-58.84969835,-0.828308359,0.611216514,0.590576555,,,
,94.76991222,43.2574541,-69.40146099,-0.730510092,0.755192355,0.583187462,,,
,77.54800411,44.69259878,-70.81511976,-0.571150765,0.82444475,0.501958104,,,
,56.34220585,53.5395828,-65.24230306,-0.462319164,0.711085219,0.409086137,,,
,45.53582077,59.9255985,-52.44861386,-0.40241213,0.565377064,0.342140469,,,
,42.51369758,61.67581267,-35.46786369,-0.352014577,0.445806524,0.305778084,,,
,40.75064915,60.55327376,-15.71199243,-0.317413456,0.361656677,0.297828644,,,
,34.85863766,56.97664202,1.604396418,-0.270168094,0.310658308,0.284214679,,,
,24.38284923,53.94242943,12.79420486,-0.241841998,0.239660245,0.270992864,,,
,15.30593724,49.12677645,17.50913185,-0.237195515,0.12705525,0.26444791,,,
,8.580845123,39.81403504,18.6258266,-0.263314577,0.039121916,0.285081549,,,
,1.974641745,25.5764922,16.93336656,-0.27519103,0.019036493,0.302413965,,,
,-10.44863024,11.5324372,14.33878449,-0.237386035,0.03433527,0.306245973,,,
,-24.91793451,-0.150745196,10.39694945,-0.212174618,0.02965158,0.300998063,,,
,-36.19855676,-11.59196752,8.042551274,-0.21302528,-0.010496942,0.311821407,,,
,-42.85111243,-24.38812044,3.48255207,-0.242231804,-0.024372987,0.332670336,,,
,-47.01617182,-42.12127879,-2.412496092,-0.286368298,0.028868094,0.36254159,,,
,-52.82659412,-61.02716715,-8.541425627,-0.308356065,0.151518349,0.378051988,,,
,-63.80268931,-75.40113125,-11.97791189,-0.327162487,0.322738736,0.397471458,,,
,-79.132347,-86.38318519,-9.899278305,-0.317569521,0.450800102,0.385066361,,,
,-86.58079834,-90.71726714,-4.324914621,-0.299336901,0.497139857,0.355203262,,,
,-87.01830891,-91.3667148,2.658524169,-0.279549847,0.528807849,0.328385321,,,
,-79.46552196,-87.01068857,11.02794787,-0.305606728,0.577323751,0.369494903,,,
,-72.12295322,-84.70063733,22.31739367,-0.369493068,0.703724465,0.445821305,,,
,-68.39213854,-81.99341175,36.23385096,-0.405782263,0.852431295,0.516898267,,,
,-71.26569377,-78.13637447,55.3138612,-0.453135678,1.000345668,0.602217737,,,
,-74.38143826,-72.97671763,76.96645194,-0.519458104,1.055001325,0.68312314,,,
,-74.07651012,-69.99693603,94.37210762,-0.575531091,0.980985933,0.718458614,,,
,-66.69738668,-63.66896096,100.6311559,-0.585849439,0.821429358,0.697393986,,,
,-41.87387561,-56.64661833,101.7279117,-0.563054332,0.570918756,0.633421305,,,
,9.28220276,-44.70571951,91.20118729,-0.309029664,0.737600612,0.819176249,,,
,-199.9673698,146.874866,-70.22147819,-2.784852192,3.608961774,2.250875433,,,
,-188.0600463,-145.3006072,3.183983763,-1.267599898,-0.846675841,0.950640469,,,
,-88.25738744,-128.0804752,-13.58752222,-0.766241692,0.891299388,1.32816157,,,
,-86.28629803,-67.19339624,-16.29663857,0.803492049,-0.012234964,0.978901019,,,
,-68.41499956,-25.32593776,-8.594997181,-0.214221611,0.243981142,1.138635474,,,
,-43.89784902,-14.58045808,-11.84504298,-0.459389501,0.424229664,0.991446177,,,
,-18.46304929,4.365938399,-3.655585324,-0.436022732,0.1803421,1.010646381,,,
,4.9632469,-5.616877153,11.56440825,-0.675434353,0.092466361,0.981730581,,,
,19.82961092,-14.93620758,23.17465312,-0.545618654,0.341858512,0.814467788,,,
,23.0269446,-22.02415387,23.73042218,-0.318510601,0.575801733,0.77865525,,,
,12.9036398,-19.00707271,15.22635341,-0.112870642,0.692416106,0.7819684,,,
,4.479613225,-12.15472667,8.224981036,-0.233437717,0.620255759,0.786130479,,,
,2.971473717,-9.291656564,5.035382287,-0.283974924,0.533930275,0.808878593,,,
,3.652777831,-4.926119235,4.666569354,-0.299023344,0.517675229,0.835618654,,,
,5.27780073,-2.001513466,3.838817227,-0.315539348,0.52083843,0.828228236,,,
,7.535311738,-2.083217247,4.741454938,-0.329759021,0.479987156,0.831581753,,,
,10.53497498,-1.660259803,7.202709738,-0.351836086,0.458445158,0.834374822,,,
,16.12532419,-1.49943055,9.748418518,-0.358135372,0.443057492,0.829047095,,,
,18.22922521,0.397174344,10.51005131,-0.309269215,0.465307645,0.821758104,,,
,20.07649844,2.84966289,10.91816915,-0.324987666,0.504691539,0.822193476,,,
,20.89227575,2.506289283,11.39057285,-0.321756269,0.517124363,0.795715392,,,
,19.45271929,2.940018334,10.49887864,-0.294971865,0.529381753,0.796683384,,,
,17.1812854,4.006808453,8.470264269,-0.291782773,0.526346381,0.781058308,,,
,14.713327,6.193272695,6.447035702,-0.279171662,0.52786422,0.777664526,,,
,10.94532735,7.361361752,5.840387989,-0.29647686,0.534109072,0.771852701,,,
,8.794501085,7.396885135,5.041512935,-0.309060856,0.544956269,0.76905158,,,
,6.321787128,5.940884786,3.712422738,-0.32794791,0.548114475,0.764824465,,,
,2.443435813,4.315632704,3.390133978,-0.331085423,0.553534862,0.76179735,,,
,1.188429059,2.088316572,2.169218212,-0.283838736,0.547991845,0.762264016,,,
,-1.469121082,3.840937171,0.861728524,-0.299612742,0.548776555,0.771175637,,,
,-2.712382202,2.796606998,-0.140317364,-0.307496534,0.541854536,0.772119164,,,
,-3.429324291,3.290611209,-0.71258761,-0.315415392,0.527949032,0.783932212,,,
,-1.991257521,1.840283142,0.273644643,-0.34066106,0.514094088,0.796140469,,,
,-1.274200841,0.381016934,0.940682108,-0.339092864,0.515620285,0.799216922,,,
,-0.241444415,0.203801088,1.930638586,-0.331195311,0.524102752,0.793612232,,,
,-0.448912432,0.403304992,1.775023249,-0.321711417,0.531055759,0.783304485,,,
,-0.75561674,0.250210669,1.718243132,-0.324860245,0.527985525,0.781815698,,,
,-0.881552864,-1.355961918,0.829642887,-0.321722936,0.527187258,0.786406524,,,
,-1.700309553,-1.766371587,0.660849521,-0.315427319,0.533324771,0.79016157,,,
,-2.224336752,-0.880979906,-0.419634289,-0.315428542,0.52947105,0.789376758,,,
,-1.317229971,0.566254189,-1.270362023,-0.315442915,0.527139246,0.794036391,,,
,-2.232988415,0.619424672,-1.333330085,-0.32489052,0.526401427,0.792695719,,,
,-1.318032112,0.211306835,-1.272138193,-0.334349643,0.521795005,0.794456983,,,
,-0.197097482,-0.290947968,-0.901090724,-0.323295923,0.52488369,0.78488318,,,
,-0.356265157,-0.504833113,-1.214212159,-0.313857288,0.52483843,0.789331804,,,
,0.644921294,-0.084396683,-2.179474157,-0.265047706,0.500013456,0.788170438,,,
,2.65485724,3.936105461,-2.017900059,-0.276144139,0.495322834,0.813288379,,,
,5.526120638,7.204829682,-1.486137929,-0.306042202,0.526269419,0.812476045,,,
,6.759870659,11.11068297,-1.79971773,-0.291876962,0.532375025,0.818383588,,,
,11.35619539,13.89485679,-1.767861277,-0.301437513,0.510675025,0.85276106,,,
,20.34206438,21.18660417,-1.950978588,-0.282653619,0.498124771,0.892728746,,,
,32.70219641,33.35135759,-2.255219177,-0.251230479,0.505622018,0.924674312,,,
,59.7993186,47.24736029,0.836346494,-0.278407645,0.352591131,1.02604577,,,
,68.93409932,78.05318099,4.768154771,-0.243194597,0.659907441,0.913910703,,,
,119.1276659,107.4298731,2.713012456,-0.20550265,0.165454332,1.092421305,,,
,125.628445,100.356881,7.482198551,-0.403894292,0.711177166,0.945658206,,,
,150.3022422,116.6581032,12.11989083,-0.438649847,0.801269725,1.013476249,,,
,135.8690343,129.1325403,17.00853863,-0.980380836,1.030303466,1.049594699,,,
,199.6646189,44.06744453,31.32486317,-1.409481957,0.702430581,1.198653109,,,
,222.2393852,-14.7729719,47.44050437,-0.653022324,1.502688583,0.70725474,,,
,115.1407964,40.43431915,-4.183222158,-0.172796738,2.228196432,0.414782671,,,
,24.92148685,93.97521975,-47.4929873,-0.433572783,1.112941896,0.389784302,,,
,44.40336969,73.60456479,-76.03407772,-0.987470948,0.439781957,0.565108869,,,
,69.67774124,21.6381522,-98.59767136,-0.957472579,0.643950459,0.60369052,,,
,49.90960869,4.027778708,-114.7997719,-0.562188787,0.883396126,0.40859103,,,
,15.50979563,16.35668454,-121.6690202,-0.386234557,0.859461264,0.276275229,,,
,-1.215759145,22.09520064,-115.8483419,-0.406807951,0.695288787,0.260099286,,,
,-0.450745897,17.80368946,-96.18867031,-0.381685219,0.5471842,0.242135576,,,
,2.813738436,13.46914914,-72.58515828,-0.287076351,0.486957696,0.183893884,,,
,2.552183203,15.16281239,-48.77744409,-0.186139653,0.439077982,0.119313558,,,
,-0.070416513,21.41406841,-27.84443104,-0.14674577,0.368106932,0.090293068,,,
,-0.878573483,24.76042841,-10.1464523,-0.162619776,0.27784159,0.107579307,,,
,-0.383423357,22.83741016,5.21792664,-0.203728135,0.209176045,0.144138736,,,
,-2.786351054,18.26148273,13.52839298,-0.203013456,0.17209052,0.159596228,,,
,-10.1328159,14.26006008,18.38484055,-0.213321305,0.173562385,0.186262895,,,
,-20.04527224,7.769823364,19.84571104,-0.232324873,0.185798981,0.228695311,,,
,-31.27289589,-1.924966304,19.56719625,-0.282886137,0.173397452,0.284235984,,,
,-41.5686037,-14.96514195,18.29780826,-0.326394903,0.157842406,0.352046789,,,
,-48.18196905,-34.65523765,14.76970604,-0.387194801,0.187072375,0.42111682,,,
,-60.72676538,-55.90819032,7.806091592,-0.388749643,0.271849847,0.44075107,,,
,-74.80250494,-69.53501745,-1.286175659,-0.324856269,0.319569623,0.417622936,,,
,-82.20110895,-76.71142843,-8.590585406,-0.29169735,0.350403568,0.396717023,,,
,-84.73060303,-83.20538938,-11.3940106,-0.295635678,0.447484811,0.428089602,,,
,-84.78342973,-90.0281708,-9.687283921,-0.327249949,0.599957594,0.519277574,,,
,-90.06002725,-98.94517026,1.285087039,-0.317915596,0.720716004,0.60169684,,,
,-95.13104751,-104.1983911,13.87738157,-0.300734047,0.773615291,0.672921916,,,
,-96.59650167,-110.0443941,29.08230636,-0.292179205,0.762649337,0.710016616,,,
,-87.53225205,-111.044893,40.65909049,-0.297722528,0.653996024,0.686610805,,,
,-64.60047574,-105.2717129,47.23257798,-0.294589501,0.53609103,0.655215902,,,
,-32.61854457,-91.5011307,46.58691184,-0.281926504,0.413648828,0.592502141,,,
,7.121407027,-66.49874221,39.45330081,-0.261348828,0.351329969,0.534389501,,,
,73.76482108,-5.135707197,-25.29121651,0.440242406,2.973646993,-0.357174108,,,
,-350.8591856,-149.9899229,-16.30586319,-3.650030071,1.530113965,2.345817737,,,
,-47.86449313,-91.93892775,-13.67971113,-1.03957421,-0.184207136,1.003482671,,,
,-124.1007104,-104.6901608,-17.19114028,0.633328746,-0.582610499,1.407634251,,,
,-47.88305697,-36.86547964,-4.229116077,0.18417737,0.798874312,1.353728848,,,
,-37.48198222,-2.134153195,-15.80005605,0.021214475,0.544801325,0.95429633,,,
,-25.31241595,4.563551542,-13.40371736,-0.550823242,0.216383384,0.954258002,,,
,-3.250790642,4.374819245,2.48216776,-0.683901733,0.123587666,0.918244546,,,
,8.88823698,-6.516478187,14.13756171,-0.591463405,0.240834251,0.844853313,,,
,11.52647844,-13.14055785,14.84413326,-0.339092457,0.506376147,0.796089602,,,
,1.209914976,-12.75616046,8.27924014,-0.15450999,0.706551886,0.748743323,,,
,-8.05618767,-11.91832428,1.112741334,-0.257035168,0.592633537,0.766404179,,,
,-7.103301561,-11.41131393,-0.518985171,-0.307642712,0.506207441,0.815582467,,,
,-6.730134149,-5.738974459,-1.399048344,-0.293555963,0.478303364,0.840080836,,,
,-4.451423702,-2.198553651,-0.463408265,-0.370794903,0.443011315,0.85110051,,,
,-0.270550671,-2.089061417,0.263388698,-0.366041794,0.446118451,0.841670438,,,
,2.292633321,-0.952943405,1.1797201,-0.329814679,0.458336493,0.845532314,,,
,2.185031848,-0.907679739,0.922118275,-0.340804077,0.45302844,0.830226198,,,
,3.186161003,0.02796034,0.068754935,-0.307687258,0.483031906,0.824865953,,,
,1.845038692,1.517879791,-1.325996225,-0.307678593,0.490748216,0.824103568,,,
,0.07018733,4.006693861,-1.743567866,-0.30293945,0.479968298,0.815423853,,,
,1.444254714,5.211624105,-2.127564181,-0.306132824,0.468360041,0.827911111,,,
,2.375368427,4.67911713,-1.242745458,-0.348666055,0.452300815,0.824962793,,,
,2.891145034,4.386163809,-0.775498376,-0.348662997,0.446141896,0.821841386,,,
,2.323802225,4.932364475,-1.29253549,-0.345502956,0.460013863,0.822573802,,,
,2.193167848,4.265498897,0.141692463,-0.354918451,0.467796126,0.811921203,,,
,1.962609631,1.749469332,-0.549180047,-0.348598777,0.475508869,0.807128338,,,
,0.330195577,0.737282091,-0.527866017,-0.343859735,0.481677574,0.803923038,,,
,-0.780654996,1.151415985,-0.387835132,-0.336812538,0.460027013,0.81227054,,,
,-1.307948055,0.769482319,-1.272023601,-0.33444791,0.464645158,0.813002956,,,
,-1.405121697,0.520704044,-1.121163814,-0.351807136,0.446159939,0.819581142,,,
,0.447537334,0.247059401,0.086058261,-0.37072314,0.444654638,0.824673293,,,
,0.763408966,-0.441062911,0.959360532,-0.356525076,0.460051886,0.82127054,,,
,0.551758357,-1.008978677,0.694654031,-0.351793272,0.460046993,0.818830683,,,
,1.598437657,-1.015109326,2.30283197,-0.343134964,0.466177574,0.822531804,,,
,1.181954636,-0.119862771,1.533063172,-0.350220387,0.464661468,0.82113578,,,
,1.063696147,-0.449829165,0.756648064,-0.339192661,0.461549949,0.819323649,,,
,2.168358776,-0.62733149,0.101528121,-0.331315392,0.463069725,0.819146993,,,
,2.0621324,-0.682507326,-0.054259103,-0.328146075,0.470791641,0.814425994,,,
,1.152733788,-0.769768798,0.293297095,-0.333649032,0.475444546,0.812228644,,,
,0.290088532,-0.209817145,0.18300272,-0.337598675,0.473898573,0.816202243,,,
,0.332716592,-0.123873475,-0.330195577,-0.340762589,0.46772528,0.81937156,,,
,1.348685354,0.322861718,-0.570952443,-0.339210296,0.45536157,0.823975841,,,
,3.399874261,-0.061822146,0.4303486,-0.334499592,0.44762263,0.826962589,,,
,4.001537241,1.438639728,-0.322002281,-0.309289093,0.461427217,0.827969419,,,
,5.73937553,1.900902077,-0.036039045,-0.329790622,0.462222732,0.837766259,,,
,7.833364383,5.446765984,-0.390757216,-0.32033211,0.480695413,0.840696024,,,
,8.994348764,10.02630305,-1.985241464,-0.301430071,0.497588991,0.845739348,,,
,10.92487276,13.95616327,-3.111848377,-0.29198787,0.496778287,0.848631804,,,
,14.98456522,20.93914369,-5.628737379,-0.268457085,0.470377574,0.876027115,,,
,30.71781438,30.02831697,-4.776405363,-0.346623853,0.408693782,0.931323344,,,
,51.09030282,46.77157614,-5.61406966,-0.270637309,0.335468603,1.060037003,,,
,80.93596084,71.12663691,-12.34792803,0.018904077,0.220188481,1.126278186,,,
,122.6204739,117.7078192,-18.84080036,-0.218775229,0.424513761,1.13209684,,,
,131.0098365,135.2017104,-42.92009655,-0.089968909,0.484487054,1.283186544,,,
,150.8225452,147.8830425,-39.99188114,-0.328889908,0.767103466,1.188912742,,,
,172.2200551,143.0244177,-37.70818596,-0.778014169,0.625605097,1.227635984,,,
,155.8399939,99.60773866,-27.0222939,-1.009884608,1.588765953,1.070016106,,,
,149.3865411,83.54263233,8.10655066,-1.287622426,2.205113252,0.87234261,,,
,30.98807857,51.03237678,20.4517285,-0.765059123,1.712279001,0.851691131,,,
,24.55668462,68.50890734,18.71698418,-0.515887156,0.682719572,0.405587971,,,
,54.26013452,66.43692006,2.103213474,-0.847889399,0.575990826,0.5388737,,,
,44.58356491,36.73455878,-12.49042264,-0.840976147,0.776794292,0.668921203,,,
,17.41545325,20.55680896,-24.6805008,-0.644566259,0.668795311,0.517318858,,,
,7.075684995,18.00571437,-32.52480868,-0.508778084,0.47318002,0.330393272,,,
,8.391826346,17.41052582,-35.09286281,-0.443269521,0.373035576,0.244753415,,,
,8.254087292,18.38386652,-31.44203304,-0.35809633,0.369868094,0.199275637,,,
,4.094470996,22.25161811,-23.55664408,-0.276085525,0.35744791,0.155406422,,,
,2.869831004,26.61652519,-14.13681686,-0.230363099,0.297283894,0.119266972,,,
,3.19733368,28.84871146,-2.757302093,-0.209835984,0.221796126,0.075898777,,,
,6.429675081,31.00440787,6.501523989,-0.168793476,0.159399898,0.021983282,,,
,9.630561099,36.1817691,13.00963699,-0.151492762,0.128496024,0.021528338,,,
,10.83915827,34.38606207,17.59455986,-0.238338736,0.138462181,0.105923547,,,
,7.565334727,23.3840119,18.75491399,-0.315742508,0.142995515,0.191647401,,,
,0.655005351,7.93712704,17.46214931,-0.326845158,0.152933639,0.22379001,,,
,-9.313887326,-5.467163281,12.69622908,-0.313457798,0.158285117,0.225827217,,,
,-16.63176158,-15.43599866,7.375284626,-0.292215087,0.161272987,0.234676555,,,
,-25.65710736,-25.47754239,5.998810819,-0.315860856,0.25222314,0.271150255,,,
,-35.54830696,-35.30434153,9.806058072,-0.357623344,0.330896636,0.304903772,,,
,-47.3600038,-44.34355289,14.20648853,-0.363869317,0.38800265,0.302825994,,,
,-56.04730448,-48.96715041,18.52510062,-0.356745973,0.392654434,0.291012946,,,
,-60.80703677,-50.55756666,22.5639947,-0.370965545,0.424991131,0.317829154,,,
,-67.21001202,-51.1625528,25.35733584,-0.396279205,0.504257594,0.385410805,,,
,-78.24305921,-51.65099932,28.04284632,-0.440488787,0.659087054,0.475335984,,,
,-91.2092087,-50.5759586,35.02823317,-0.502170031,0.731327625,0.593481244,,,
,-98.12807515,-60.72183794,47.0449916,-0.614351274,0.688020795,0.710997146,,,
,-94.15982676,-76.79840342,56.38322963,-0.633407441,0.643172783,0.754873598,,,
,-87.65990705,-81.78382379,57.51012302,-0.565673293,0.656844648,0.757242712,,,
,-82.23789284,-77.67583099,52.82562009,-0.488492151,0.61193262,0.742180734,,,
,-62.52745714,-63.64770422,42.95080708,-0.348267074,0.442085015,0.671802039,,,
,-8.167799848,-11.66433209,-5.688554173,0.019360856,2.685946075,-0.028664118,,,
,-329.6708626,-163.4936214,31.44060064,-2.620651784,1.720838532,2.089527421,,,
,-92.64756195,-80.81266033,3.744852149,-1.085767686,-0.06231366,1.236415087,,,
,-120.3792922,-162.3171672,-6.982923128,0.604656575,0.185047503,1.18281366,,,
,-27.66761626,-61.50638905,5.393251726,0.25158104,0.445364322,1.362382671,,,
,-53.30444092,-14.31729857,-17.87009526,-0.054910805,0.348602548,1.087014577,,,
,-21.37825855,10.51308799,-9.762627871,-0.579528746,0.111188685,1.053425892,,,
,10.95117152,5.929253743,9.985737637,-0.749582161,-0.003010703,0.995671254,,,
,32.31613745,-3.487651395,25.89459837,-0.629395617,0.153706728,0.865757798,,,
,34.23336882,-13.77121249,28.21908814,-0.371992049,0.559115596,0.746417227,,,
,21.32440051,-14.82820503,19.44217686,-0.106303772,0.762113761,0.704223242,,,
,4.836795115,-11.7550886,6.534927428,-0.113480224,0.711932518,0.721389704,,,
,-5.136222859,-9.960126423,-0.944349038,-0.206667176,0.589350968,0.778463812,,,
,-10.45441711,-5.465730887,-4.430854517,-0.235181346,0.52911264,0.820193884,,,
,-12.68580125,-0.803229533,-5.705857499,-0.336024159,0.502397859,0.825549949,,,
,-8.679737638,0.101470826,-4.049264626,-0.374674108,0.473152192,0.838810907,,,
,-2.622714307,-0.790853645,-0.939593488,-0.40071631,0.441567686,0.848670642,,,
,2.001112395,-1.740187415,1.94226963,-0.369214577,0.436850866,0.847165851,,,
,3.642464591,-1.005884705,2.845365706,-0.343932314,0.469247503,0.82721998,,,
,4.749476347,1.855982186,1.699736595,-0.313173293,0.495412946,0.818796738,,,
,4.331560931,3.005793889,0.932087741,-0.309194393,0.504704893,0.806287156,,,
,4.035914709,3.620978674,1.085468543,-0.304526198,0.490741998,0.823254332,,,
,6.292738168,3.946475997,1.891792048,-0.345506218,0.470794699,0.827258818,,,
,9.127045789,4.297068872,3.680967355,-0.355782671,0.450740265,0.835227115,,,
,11.03889136,4.548769231,5.458339731,-0.345491743,0.470815494,0.821817329,,,
,12.68551477,6.296347802,6.163593481,-0.340736391,0.483940979,0.814738736,,,
,13.30854907,5.816782128,7.147018241,-0.346981651,0.495594495,0.797802956,,,
,11.44443089,4.205567512,5.82463165,-0.357983996,0.499512844,0.790288277,,,
,10.54477256,2.972734224,7.087258743,-0.334332518,0.507952396,0.783547095,,,
,8.178857934,2.332224705,5.86766078,-0.32801998,0.521818043,0.783430275,,,
,5.503603397,0.874791962,4.533815033,-0.329600408,0.515651988,0.78345423,,,
,4.078141698,1.125919363,4.258795291,-0.334352497,0.508694088,0.79132212,,,
,3.047333329,-0.461231025,3.871934188,-0.335943221,0.500202243,0.79445107,,,
,3.764160827,-0.961938842,4.237653149,-0.337529969,0.496338328,0.797588889,,,
,3.191203032,-1.23334895,3.611467574,-0.340673089,0.50483211,0.797677166,,,
,3.151497056,-1.519770552,4.225678331,-0.345411519,0.49943476,0.800883996,,,
,2.850522327,-1.358998594,4.480014296,-0.332797655,0.514053415,0.800624975,,,
,2.835109762,-1.281477405,3.708813104,-0.321757798,0.520203772,0.797276045,,,
,2.612572954,-1.512092917,2.829208297,-0.309137207,0.523276045,0.790775841,,,
,1.084379923,0.051909976,2.151914887,-0.320969317,0.514039653,0.794914067,,,
,0.577140387,0.005328507,2.19694937,-0.334360347,0.514075739,0.795996738,,,
,0.257315346,-0.826147845,1.62038194,-0.334363812,0.512530071,0.796771152,,,
,1.164995085,-1.448150827,1.371030708,-0.336735474,0.511753823,0.799932926,,,
,0.657583661,-0.989154338,1.316657013,-0.34066524,0.514088175,0.797695107,,,
,1.890187766,-1.024219355,2.000825916,-0.331213965,0.509438532,0.795915902,,,
,1.369942088,-0.842992804,1.323933577,-0.29657788,0.507771254,0.80134159,,,
,0.856056242,0.767591558,0.560295428,-0.324931295,0.512475943,0.803551784,,,
,2.166468015,1.80189497,-0.391502061,-0.318662997,0.51087054,0.815065545,,,
,2.15798824,4.67396051,-1.345591382,-0.290259123,0.550920999,0.808277778,,,
,2.240837937,7.370299893,-3.122849167,-0.304443017,0.544788685,0.809366463,,,
,3.547811963,10.47332472,-4.777952349,-0.315468705,0.530954536,0.804926911,,,
,6.00803544,15.38471894,-5.375318147,-0.32739949,0.520036391,0.845598063,,,
,12.68127488,22.0644901,-4.157381761,-0.302344037,0.482773191,0.88848369,,,
,28.93614482,33.84553369,-3.180717904,-0.281290928,0.43310316,0.951646585,,,
,49.39245698,47.56535187,-1.41892998,-0.228080326,0.316123445,1.042705301,,,
,65.06829578,68.31879994,-1.913392557,-0.296303772,0.350288175,1.239434251,,,
,109.0281388,89.96468708,-9.851092555,-0.121043935,0.224025484,1.039307441,,,
,117.6705196,88.12130996,6.308551803,-0.592326504,0.696448522,1.31526473,,,
,155.6698254,49.06896501,14.32085091,-1.140454536,0.497791539,1.250417941,,,
,193.9395673,-1.006457663,34.10514087,-1.181199796,1.167272885,1.091752396,,,
,151.5092924,-15.12929436,33.07009261,-0.417875739,2.103551172,0.727943935,,,
,23.28305674,41.61736241,-0.439916995,-0.161993782,1.681275841,0.618677778,,,
,-22.64930812,83.90170498,-25.82704664,-0.517860041,0.753033028,0.577557798,,,
,10.93037315,64.61829473,-38.53496406,-0.860308359,0.263149337,0.666024669,,,
,40.40097301,30.06785106,-50.57836503,-0.764854944,0.421024873,0.656384302,,,
,29.02902128,23.56907727,-67.39593682,-0.498933639,0.632830275,0.529474618,,,
,6.547876274,32.00060959,-80.55442825,-0.408955963,0.595864118,0.443400612,,,
,-2.761198206,32.28181728,-84.1350134,-0.427885117,0.432556065,0.401537411,,,
,2.453405279,25.19352721,-80.47541737,-0.380520082,0.347060652,0.331886239,,,
,8.790203901,22.38001796,-71.72572158,-0.274742202,0.352489806,0.24087105,,,
,7.758937166,25.63860082,-61.79567544,-0.175277064,0.363313048,0.156228848,,,
,7.107999815,32.08133934,-49.36707495,-0.138982671,0.327862181,0.119575433,,,
,10.94183231,34.97838584,-35.87374699,-0.162676758,0.269285933,0.12621947,,,
,16.47906833,30.09884808,-21.69355722,-0.202960347,0.249206218,0.164409888,,,
,18.48808754,20.37478027,-9.756497223,-0.224300714,0.282287564,0.203827013,,,
,11.87363357,10.80111387,-2.154264014,-0.219624261,0.326886952,0.236455046,,,
,-1.744771078,2.213221371,0.216578047,-0.233874108,0.343002039,0.269458818,,,
,-12.03234288,-9.616810112,1.885088442,-0.257636901,0.305898879,0.308793782,,,
,-17.91484327,-24.86757152,3.744107304,-0.282133129,0.293528033,0.335756881,,,
,-23.8687342,-38.80081648,7.052938571,-0.29162212,0.307368603,0.354655963,,,
,-28.72993731,-48.50127843,10.67002113,-0.305046585,0.370529766,0.388510296,,,
,-36.40075357,-57.64133036,10.65243133,-0.320053007,0.418277778,0.420038532,,,
,-43.84003758,-65.22654672,11.57288802,-0.329575943,0.433610703,0.452155759,,,
,-47.22449928,-69.75766885,11.23782231,-0.335906524,0.481351172,0.478822324,,,
,-49.87643443,-72.03872843,11.34273088,-0.3367737,0.558279817,0.533404893,,,
,-53.96941574,-71.30070149,15.05251801,-0.348688583,0.653699286,0.602267278,,,
,-54.51011601,-71.03101026,23.74148027,-0.388969623,0.682928848,0.65532314,,,
,-46.1028771,-66.82429683,29.02781807,-0.381069419,0.633635168,0.630172375,,,
,-31.57381333,-50.22937643,27.18805059,-0.322620285,0.567450153,0.544759939,,,
,-10.13201376,-19.03612167,15.78452889,-0.237510703,0.521049439,0.509304077,,,
,-35.0074348,147.6764339,-57.76606327,-3.920874618,5.531652294,3.011994393,,,
,-237.1716967,-248.3158404,12.97205096,0.134161774,-1.210864016,-0.324184302,,,
,-71.43878432,-140.9754061,-8.812835734,-1.447703976,1.175739857,1.508268705,,,
,-109.3740908,-139.5669612,-3.183009735,0.090206218,0.001786952,0.897248318,,,
,-57.34453822,-60.32844512,-2.669410368,0.225976045,-0.359433231,1.255676045,,,
,-59.11520699,-29.91979877,-7.152977002,0.13439735,0.770639653,1.110730785,,,
,-35.68885351,6.316974283,-14.21164515,-0.013313965,0.609795005,0.928781957,,,
,-18.21054679,2.96614521,-6.943560928,-0.729030683,0.020917941,0.975039348,,,
,7.122552943,-1.529109764,11.93425251,-0.739846483,0.010465036,0.892869725,,,
,25.17673955,-14.18322644,25.20000163,-0.567925178,0.218296126,0.870701325,,,
,27.55411333,-22.28473508,25.94232575,-0.294316922,0.499914883,0.837031295,,,
,14.73040114,-20.19974166,16.37931638,-0.06300316,0.812809786,0.725877574,,,
,-2.097197418,-11.81599402,5.260096334,-0.172580326,0.705127115,0.73205158,,,
,-7.135272606,-8.65813713,-0.295302448,-0.273023242,0.504516412,0.827227013,,,
,-8.675669638,-1.046908483,-3.185645341,-0.318685321,0.501593782,0.820489093,,,
,-8.516158188,0.524600157,-3.478827845,-0.356540571,0.480830581,0.833748624,,,
,-6.735061586,0.465814687,-3.456826265,-0.3408263,0.470715902,0.844253007,,,
,-4.493822579,-0.300115293,-3.177910411,-0.324340979,0.445937615,0.856265749,,,
,-2.750197417,1.489804859,-2.779246377,-0.332976962,0.44908369,0.847140979,,,
,-0.895303851,4.15468886,-2.063793978,-0.337664118,0.455315494,0.834822936,,,
,0.290031236,5.445562772,-1.317401858,-0.313982365,0.479976758,0.82189419,,,
,0.833023338,6.630840563,-2.432377728,-0.30215841,0.486890214,0.820083588,,,
,-0.080615162,5.880265851,-2.192251116,-0.329711927,0.476972783,0.812919164,,,
,1.132393786,4.750049305,-2.339443973,-0.325014373,0.470755759,0.821350357,,,
,1.521432129,5.15507317,-0.787587785,-0.351800612,0.453873293,0.819596024,,,
,3.2201374,5.281926026,0.263732473,-0.340789195,0.446116004,0.822439144,,,
,5.84227875,4.109826264,2.143606999,-0.359687462,0.450799083,0.822879103,,,
,7.642225663,1.967537068,3.900753965,-0.355731397,0.462369521,0.819702345,,,
,9.201530302,1.008348424,6.023276117,-0.350998675,0.470840367,0.819611009,,,
,10.36073851,-0.523396946,6.027917075,-0.343879103,0.483190724,0.811699694,,,
,8.985754397,-0.928077037,6.004826876,-0.329710805,0.483137513,0.814485831,,,
,9.407795109,-0.904356584,6.783247337,-0.345464628,0.48318053,0.815622426,,,
,9.181935146,-1.647253661,5.796327534,-0.338369725,0.473924567,0.810001325,,,
,7.764322969,-0.877542159,5.833970862,-0.339176453,0.470817839,0.81623211,,,
,7.848375878,-0.750861191,4.963017717,-0.342296942,0.48165525,0.808551274,,,
,6.945623576,-0.323893042,5.51930244,-0.334421305,0.486254434,0.809935372,,,
,6.132195394,-0.01655848,5.460001309,-0.340714067,0.493217737,0.809315189,,,
,6.524671484,-0.898684302,4.995046058,-0.329673904,0.492434964,0.803620693,,,
,5.500967791,-1.362321749,4.719854429,-0.326532416,0.4893316,0.805875025,,,
,4.068458712,-0.562529963,4.038321132,-0.332822732,0.48936473,0.802131906,,,
,3.646360704,-0.687320171,3.260301742,-0.328102345,0.49550683,0.805922834,,,
,3.746513727,-0.638160392,3.210970075,-0.326515698,0.501681855,0.803566871,,,
,2.398916992,-1.434514432,2.003404226,-0.328103058,0.497046585,0.806703262,,,
,1.137550406,-1.664843465,2.602603489,-0.339900612,0.501726809,0.802317431,,,
,0.747652627,-1.770324995,0.846545142,-0.318639755,0.501658919,0.803387258,,,
,-0.525574185,-0.458251645,0.324752478,-0.317081142,0.501630581,0.809570133,,,
,-0.280634728,-0.877828638,-0.086000965,-0.331256065,0.493970438,0.806769113,,,
,-0.994883915,-0.272040361,-0.348014565,-0.330457594,0.497065341,0.803647706,,,
,0.429374572,-0.184148635,-0.48655576,-0.293506116,0.473752294,0.81986055,,,
,3.594622615,1.791237955,-0.478992717,-0.309310703,0.46524842,0.837305199,,,
,5.241704389,3.896227598,0.229183118,-0.306100714,0.476880326,0.818599185,,,
,9.634342621,6.332043073,0.462033166,-0.318766361,0.459876656,0.837510296,,,
,12.78853258,9.256992617,-0.138713082,-0.32663476,0.478399796,0.84083527,,,
,18.34954635,14.04204964,2.185203735,-0.314897452,0.490582365,0.873238838,,,
,26.51064259,24.09092723,0.670647099,-0.237073293,0.477818552,0.922742508,,,
,42.94502021,40.79539715,-0.673741071,-0.242701223,0.449936391,0.957018247,,,
,72.5672247,61.57187813,-0.276051066,-0.217118756,0.281330989,1.055601631,,,
,80.32266682,101.1586781,-4.867906723,-0.091457594,0.211123445,1.162978491,,,
,146.4036082,121.4911741,-4.124322097,-0.291338838,0.566327931,1.218756371,,,
,141.2362737,150.8039814,-6.563747205,-0.324509582,0.83356422,0.748203772,,,
,130.8354282,165.8976377,6.324995692,-0.511397757,0.850372885,1.139601733,,,
,162.5880616,142.2089842,23.77115948,-1.410886544,0.927635372,1.206899083,,,
,192.0716103,40.75190966,64.71478082,-1.351121509,1.371436391,1.086698165,,,
,181.2860809,31.77761442,70.72527998,-0.464336901,2.225005403,0.46961682,,,
,46.02862177,74.19797717,27.73723064,-0.252174822,1.558065036,0.433936391,,,
,10.52254179,95.56884457,-22.44424653,-0.714727523,0.671987258,0.544576249,,,
,31.75085729,51.52053683,-63.56531289,-1.123560041,0.480887768,0.815479001,,,
,34.44364433,-5.445218998,-87.05589494,-0.913688379,0.665705403,0.730214985,,,
,12.99508386,-21.30062277,-101.1169668,-0.50960683,0.765875229,0.43980948,,,
,-8.108613308,-11.0396935,-105.8184293,-0.320191743,0.682683078,0.261209072,,,
,-15.40912694,-1.2150143,-96.85479104,-0.307559429,0.536314781,0.20233578,,,
,-8.491463707,0.528610862,-75.72382108,-0.288652803,0.424558206,0.16437472,,,
,-0.262815741,1.724087301,-49.02221166,-0.224729867,0.40221366,0.107684098,,,
,2.932627179,9.777696661,-26.75810306,-0.149754842,0.405297044,0.049236595,,,
,2.229722556,21.51319011,-7.910369911,-0.156036799,0.37144475,0.03143527,,,
,-0.033861806,28.02433979,4.804365704,-0.171807645,0.275933945,0.008288379,,,
,5.171860834,34.82122352,14.43756241,-0.198667788,0.19885474,0.0149684,,,
,8.25832718,35.75067566,18.4018001,-0.2759842,0.228165545,0.075864628,,,
,1.589957881,31.33729635,21.52350335,-0.31315158,0.318965341,0.162394699,,,
,-12.36568973,21.96427978,24.86069603,-0.334572069,0.335754027,0.226655963,,,
,-22.71422424,14.14019731,27.68572173,-0.323643119,0.260083792,0.238695719,,,
,-26.07525196,5.162578917,26.84605208,-0.323677472,0.195321203,0.230796636,,,
,-25.3307506,-4.229574444,22.97726916,-0.307949032,0.192160449,0.238204995,,,
,-27.68085159,-11.77703289,19.13850923,-0.292230887,0.293759021,0.283129969,,,
,-34.65764407,-19.33153871,17.81027847,-0.304918145,0.416937105,0.355173496,,,
,-45.8748399,-27.78644771,18.16247563,-0.323911519,0.49236106,0.414053007,,,
,-55.2270008,-38.81995327,20.98394899,-0.338945872,0.500008461,0.443171458,,,
,-57.97954735,-50.04459755,23.37696452,-0.331925586,0.47831947,0.461624669,,,
,-58.65695535,-60.054514,22.41777588,-0.331970948,0.502907441,0.48654791,,,
,-58.37712276,-67.12303702,22.83294109,-0.339931804,0.546721916,0.532676962,,,
,-56.97475126,-74.70344054,23.26059679,-0.382645362,0.576629052,0.612218349,,,
,-53.82262395,-86.05201559,25.53690082,-0.460111417,0.614970846,0.732211825,,,
,-51.90344452,-100.8504841,28.07796864,-0.539134353,0.64563945,0.842897961,,,
,-52.412804,-115.1269308,25.95143578,-0.531420999,0.605323649,0.890836901,,,
,-49.30651331,-121.3118956,19.10109509,-0.525333129,0.532583792,0.947299898,,,
,-42.08128633,-124.7443139,14.39029339,-0.542857187,0.507700102,1.013722732,,,
,-25.07630004,-124.1666578,12.04872947,-0.509676962,1.182618247,1.1915158,,,
,-233.135782,-14.49342579,-75.43424821,-1.664546381,2.972933945,1.889842508,,,
,-223.6826086,-66.69681372,-23.23825144,-1.357073904,0.38044842,0.637936595,,,
,-134.6120222,-143.937426,-7.604582336,0.266024771,0.43100948,0.665548624,,,
,-30.00975314,-77.08224671,-2.763776516,0.131882059,0.436432008,0.765004893,,,
,-87.27327513,-12.35910071,-37.27205049,0.35510367,0.473709276,1.534197146,,,
,-43.37668661,45.44626746,-30.90614561,-0.097497146,0.211514679,1.065174924,,,
,-29.09726056,11.3329333,-15.03063102,-0.943175127,0.081747604,0.969158104,,,
,5.936644898,6.610042195,10.35329006,-1.146321305,-0.148705708,0.880060347,,,
,20.37850449,-17.97064936,20.99191311,-0.418037207,0.370750153,0.824052701,,,
,14.23628234,-13.75104438,14.5069476,0.018582977,0.736610499,0.821033028,,,
,2.71077792,-6.247474502,4.801787394,-0.187716004,0.678732314,0.788311825,,,
,-3.865517061,-7.35866885,0.538809511,-0.367362793,0.506577166,0.765641794,,,
,-3.073632092,-5.95331797,-1.350060453,-0.288773394,0.484534251,0.82055107,,,
,-5.144416155,-0.093965078,-4.77766587,-0.273006422,0.514555657,0.824137003,,,
,-7.066403079,2.162629198,-4.830148805,-0.373747095,0.520343425,0.801570846,,,
,-3.797908041,0.039018426,-3.82982179,-0.356528236,0.468521713,0.8251737,,,
,-2.561121344,-0.61008546,-3.152986747,-0.347199898,0.433650968,0.859872069,,,
,-0.067207949,-0.484894182,-0.495894972,-0.369278593,0.402861876,0.860315189,,,
,4.237080191,3.202146525,0.773149249,-0.308538634,0.442112029,0.835687768,,,
,4.874896808,7.89598867,1.077103359,-0.31875107,0.458357594,0.831288481,,,
,4.86727647,6.732311389,1.225499428,-0.334423853,0.483169113,0.80992946,,,
,5.463496351,6.657196622,0.461689391,-0.348598369,0.46626473,0.804000917,,,
,6.014223384,5.709524428,2.776496179,-0.376990112,0.447802752,0.813162589,,,
,8.360027189,3.891643936,3.566032021,-0.380172885,0.446224873,0.824891845,,,
,10.29616617,0.913180134,4.65006817,-0.377015392,0.457011417,0.825618247,,,
,10.51102534,-0.535142581,5.618309547,-0.374662793,0.452367584,0.827887564,,,
,11.45972886,-3.513434496,8.230939798,-0.377011621,0.449312844,0.821716514,,,
,14.0236577,-3.586372023,9.550003233,-0.346282467,0.464650051,0.821045973,,,
,13.50478712,-2.942539348,8.879528022,-0.346259633,0.464682569,0.812495005,,,
,12.38196173,-2.082701585,8.512032892,-0.35331315,0.473997757,0.802568909,,,
,10.62544501,-2.524738524,7.199214696,-0.345427421,0.48554475,0.802411723,,,
,8.689878991,-2.524280158,7.017930849,-0.335975127,0.489370948,0.80298104,,,
,5.908054304,-2.523478017,5.076921727,-0.331248318,0.490899898,0.802876249,,,
,4.877245935,-1.583311571,4.092637531,-0.32179949,0.495491437,0.805001835,,,
,3.131959196,-0.999123803,2.993475296,-0.330468298,0.489346075,0.805187462,,,
,2.83132824,-0.990013774,3.246722642,-0.331248318,0.490899898,0.802876249,,,
,1.378020793,-0.983482055,1.632643237,-0.332828236,0.487816208,0.803683588,,,
,0.652255154,-1.052752653,0.95408932,-0.32966789,0.497065953,0.802852294,,,
,-0.980961041,-1.463105026,0.671506536,-0.332832722,0.497054434,0.808365647,,,
,-3.350026932,-1.098073614,-0.952771518,-0.317057798,0.504745566,0.801802548,,,
,-3.46381635,-0.158766605,-1.824412211,-0.291844241,0.483116208,0.790302956,,,
,-3.088357107,1.452333419,-4.018153017,-0.292671254,0.483062283,0.805090724,,,
,-3.591127573,3.079648149,-4.267045883,-0.334424363,0.477775637,0.80836422,,,
,-2.364826004,2.274470559,-3.794412998,-0.333657696,0.467728236,0.81299103,,,
,1.123684828,2.359612088,-2.356403524,-0.371508767,0.446970948,0.824695821,,,
,4.213417034,1.451302095,-0.007906818,-0.354985423,0.452292457,0.83210265,,,
,8.610008675,2.989063521,0.937874615,-0.323509276,0.478355046,0.850091641,,,
,10.33862234,6.728415276,0.219270948,-0.296667482,0.50456157,0.833984709,,,
,13.79384433,12.72229866,-1.487627619,-0.282511825,0.509112844,0.842998675,,,
,16.65949274,19.55401822,-2.578138191,-0.30306524,0.495196738,0.867536901,,,
,22.77100436,29.15805138,-2.424814685,-0.298520387,0.445619266,0.919416514,,,
,47.06573267,43.18445927,1.102771868,-0.337304077,0.424657085,0.985554332,,,
,79.04835139,67.62128112,3.110415982,-0.256195617,0.384340979,0.975853109,,,
,98.22977516,96.38605427,-13.56563524,0.031384709,0.175295923,1.156998471,,,
,126.0089463,114.8747721,-16.23561856,-0.253470031,0.532412232,1.182847299,,,
,129.1019444,154.4019844,-28.69573173,-0.108236697,0.612563914,1.086414985,,,
,153.7909822,172.4365759,-19.36328057,-0.83766524,0.760893272,1.195058716,,,
,200.5835859,129.1747673,-3.092138629,-1.184868807,1.401099388,1.065864934,,,
,187.0908882,89.87175332,32.25958651,-1.060718247,1.486195413,0.903073598,,,
,108.0339425,77.07256373,24.17245912,-1.004368298,2.11529368,0.941886137,,,
,51.36102538,90.96111798,11.32834964,-0.664830479,1.139102854,0.588660041,,,
,51.51199975,98.39490159,-17.08554416,-0.754030377,0.491938124,0.458837615,,,
,63.92312503,79.77050739,-45.1742844,-0.905623242,0.532673598,0.616282263,,,
,50.20531221,55.18654998,-64.21745345,-0.762136188,0.684232518,0.607089093,,,
,25.58285203,44.27794922,-72.00824707,-0.558622018,0.648653313,0.472567584,,,
,10.73298919,37.61347604,-69.96553794,-0.421346177,0.537652294,0.345627115,,,
,3.377700794,33.57108691,-59.67126253,-0.329852905,0.445127727,0.2640737,,,
,1.132966744,28.90990336,-42.41893036,-0.250985525,0.372635474,0.19839368,,,
,-0.346868649,27.18134698,-25.80086247,-0.181561366,0.307115698,0.132165341,,,
,0.089954374,26.32809824,-10.38205254,-0.146039042,0.233939755,0.077577268,,,
,1.398819161,26.22748685,-0.241673598,-0.127074822,0.14614791,0.025670133,,,
,5.912695263,27.31708069,4.244242163,-0.115219368,0.053724873,-0.019865443,,,
,9.331820905,28.4314263,4.401920148,-0.140472477,0.019058716,-0.011584404,,,
,7.500361313,27.23938761,1.803671139,-0.183087768,0.089166972,0.043936595,,,
,-2.129225758,21.65900787,-3.608259011,-0.236804485,0.170755963,0.131603262,,,
,-16.77150599,9.60489259,-6.518655427,-0.31419684,0.198417533,0.220481346,,,
,-25.47817264,-9.624774226,-5.291952787,-0.382058206,0.186104791,0.266311519,,,
,-31.00022528,-31.01884641,-1.159322803,-0.395420591,0.207753007,0.263549337,,,
,-37.73608901,-44.75900459,1.68174572,-0.380340469,0.300322834,0.249394903,,,
,-50.96763255,-52.29672275,3.354152228,-0.399161162,0.420676555,0.257832824,,,
,-65.72840045,-58.07849716,3.988645691,-0.436178695,0.497823242,0.283701937,,,
,-78.14445317,-64.16686128,4.957173548,-0.444866259,0.542497044,0.307306932,,,
,-84.113241,-70.56806036,8.169747905,-0.435477166,0.581671458,0.342926198,,,
,-86.04617142,-76.56555337,15.04329339,-0.43398634,0.657816004,0.399008053,,,
,-85.15327399,-81.68716581,25.87099251,-0.445123751,0.731647706,0.464701223,,,
,-82.62681659,-85.99603761,36.83052921,-0.455484913,0.811624057,0.536607238,,,
,-83.00668761,-88.25200163,49.51730449,-0.497320489,0.901749235,0.601477472,,,
,-78.75178843,-88.85578456,61.81022857,-0.549451274,0.871641081,0.649246075,,,
,-68.53973247,-89.86235681,66.67005659,-0.582639653,0.791459429,0.665392151,,,
,-49.25953077,-84.49483089,62.90784382,-0.596872885,0.685875229,0.653072885,,,
,-7.545624979,-84.65967085,50.17242443,-0.245600102,1.224912334,0.81557472,,,
,-273.0239005,-122.6617842,-21.74781633,-3.463199185,2.773653823,2.972064934,,,
,-93.83432943,-144.9635361,-0.402732034,-0.097970234,-0.622847299,-0.208139246,,,
,-142.1089458,-177.3200671,0.318106168,-0.672101019,1.111956473,1.240164934,,,
,-80.97790136,-143.2095977,-3.788396941,0.441735372,-0.144407849,1.335128236,,,
,-50.88455367,-63.66311679,3.270844165,0.575766769,0.240603058,1.402784608,,,
,-64.98395639,-6.99919513,-21.34548536,0.120662691,0.818306422,0.960337513,,,
,-35.36381455,13.78015063,-17.93810535,-0.577675229,0.290314271,1.006317941,,,
,0.046466877,8.998244877,-0.788275335,-0.77173578,-0.073197146,1.011585321,,,
,24.43006095,-0.485925506,18.34777018,-0.661170438,0.05865209,0.93780948,,,
,41.38181946,-10.27972228,31.62285852,-0.533343323,0.255071254,0.908850765,,,
,36.14893862,-14.18563287,28.60142288,-0.197749337,0.720656779,0.724882569,,,
,17.61295181,-11.65264375,16.07805517,-0.152672783,0.77625739,0.672660754,,,
,2.389806963,-11.40678756,5.837351313,-0.170213558,0.680472987,0.722621509,,,
,-5.600891631,-8.228476079,0.553419934,-0.257130479,0.533946993,0.783392457,,,
,-5.264679996,-5.527667624,0.426166008,-0.388107645,0.435378084,0.843707136,,,
,-0.50976055,-3.492808015,4.160762212,-0.400673598,0.460118247,0.838600815,,,
,3.815211366,-4.460247252,4.827971565,-0.343958308,0.492322426,0.844366667,,,
,5.396746768,-2.333198733,4.659407382,-0.325820387,0.495384608,0.836186035,,,
,8.461899085,-2.168817142,5.370276118,-0.331331091,0.473832824,0.828496228,,,
,10.61868411,1.195361848,5.683855919,-0.337610703,0.47927421,0.822431498,,,
,11.13405965,2.523134242,5.856087032,-0.329693272,0.493948114,0.81139735,,,
,11.4306799,2.764578657,5.502113707,-0.309186544,0.513960856,0.806305097,,,
,10.50529577,3.307341577,4.825393255,-0.309182569,0.518588889,0.806313965,,,
,10.92212256,4.12604097,4.990462396,-0.31866422,0.492379205,0.809588175,,,
,11.22487346,6.040808626,4.341243918,-0.324966259,0.490854842,0.809728848,,,
,10.4002726,7.797669113,3.367960511,-0.332811621,0.502477472,0.802157288,,,
,9.577161433,6.123028069,3.396780288,-0.346946381,0.507971356,0.788498573,,,
,9.272748956,5.721671134,3.544316921,-0.351669317,0.511070438,0.788612334,,,
,7.946466252,4.409196712,3.77321356,-0.342185423,0.520334455,0.779086442,,,
,7.735274009,2.73060226,3.80890883,-0.343758614,0.520341998,0.778344954,,,
,4.874553034,1.862743088,3.403426599,-0.339002345,0.52961682,0.769704179,,,
,2.816087563,-0.092475388,2.587019037,-0.317751172,0.527994393,0.773880428,,,
,0.966350617,-0.521334298,1.684667805,-0.314599898,0.538772069,0.77693894,,,
,-0.996029831,-0.515719311,-0.039133017,-0.326433333,0.527993068,0.78107421,,,
,-1.924737121,-0.081073528,-0.923035008,-0.329590214,0.520288889,0.781131091,,,
,-2.589024389,-0.238063964,-1.139441167,-0.334333945,0.511031804,0.785107747,,,
,-2.205429145,-0.076489866,-2.419256994,-0.321746483,0.514056779,0.79104526,,,
,-2.949414842,-0.649504957,-1.301702815,-0.33434791,0.514093476,0.79133262,,,
,-2.763203559,-0.932316924,-2.175807227,-0.331214169,0.514060652,0.797479613,,,
,-2.341964988,-0.708405018,-1.499373254,-0.342244343,0.50946473,0.79772212,,,
,-1.533808018,-0.820876633,-1.746432655,-0.34067054,0.507917533,0.79768318,,,
,-1.010697551,-1.658369042,-0.768622882,-0.343828338,0.506375127,0.800084098,,,
,-1.727582344,-1.81329683,-0.933233657,-0.343810194,0.515645973,0.796215291,,,
,-1.932472051,-1.713258399,-0.98789383,-0.329616718,0.511006218,0.788109378,,,
,-0.912377993,-1.109475474,-1.022615073,-0.307595821,0.507815189,0.798483588,,,
,-0.103533474,-0.464095814,-1.470037815,-0.307600917,0.497022426,0.796907951,,,
,2.058350879,0.927962445,-0.658786873,-0.32184577,0.480017431,0.817409684,,,
,6.443999026,4.164257255,-0.830846099,-0.307709276,0.496097248,0.837329154,,,
,9.857624274,9.672845385,-1.770153108,-0.286425178,0.513781855,0.835323853,,,
,15.11668928,15.53437552,-2.582206191,-0.290496126,0.461986646,0.868739959,,,
,24.17177157,24.87851501,-2.386942175,-0.30949633,0.431856167,0.896320285,,,
,39.7671671,41.64234337,-3.187135031,-0.254750866,0.335614985,1.009149439,,,
,69.05728524,68.22512134,-3.234461345,-0.229312742,0.551589297,0.989559327,,,
,106.2783425,106.0307101,-15.28811826,0.049519062,0.120573089,1.131603772,,,
,130.7152789,129.2615704,-18.17485152,-0.209211519,0.469330173,1.103983078,,,
,150.3053935,164.1617475,-27.23875736,-0.157494292,0.688722426,0.976530581,,,
,149.883983,177.2364725,-32.84411806,-0.303592355,0.676258206,1.123640775,,,
,149.765037,187.591596,-30.10898943,-0.589859225,0.854879205,1.031020183,,,
,136.9770201,169.1181762,-16.0966763,-1.011471764,1.667334251,1.099744139,,,
,140.7630106,83.16849089,33.4490469,-1.464591845,1.506504791,1.154066871,,,
,114.0301177,56.99973222,57.69679267,-0.845365341,1.732169521,0.553516208,,,
,13.79699559,49.2103137,43.73203504,-0.581666055,1.547840877,0.542479613,,,
,-5.592354559,66.02037975,16.85023039,-0.566123751,0.713924057,0.353159429,,,
,10.68955899,48.68886481,-12.31412352,-0.897356065,0.452317431,0.443371967,,,
,16.27354837,9.087339814,-34.0870927,-0.839034862,0.523080734,0.449954027,,,
,6.244896192,-11.25065656,-52.02960983,-0.60312263,0.581548726,0.304772885,,,
,-8.361459583,-12.46807728,-64.95473554,-0.433414985,0.521500815,0.140658716,,,
,-12.92386521,-7.44243528,-70.90518873,-0.370286544,0.381277574,0.048776249,,,
,-5.553909091,-5.772836265,-68.69110792,-0.332429766,0.291876045,-0.000455556,,,
,3.030030004,-2.886160301,-61.51039976,-0.285103058,0.273350663,-0.034218145,,,
,5.262846531,1.429415107,-51.6281383,-0.218824669,0.28873843,-0.076119572,,,
,5.103793447,8.092685082,-40.21905891,-0.182572885,0.264012334,-0.093318145,,,
,4.063760458,13.69248809,-27.18140428,-0.217321101,0.223918043,-0.070062181,,,
,3.521570496,11.2392547,-12.65262699,-0.272607034,0.222317023,-0.011283384,,,
,-2.350903129,9.139077903,-0.358786171,-0.267212232,0.21211682,0.029771458,,,
,-10.51870298,7.405651389,8.616311211,-0.288609378,0.188107645,0.072187462,,,
,-18.15050081,1.917002191,14.69315888,-0.335986646,0.178826504,0.116001937,,,
,-25.25254186,-4.963476083,16.96321767,-0.383356065,0.195750153,0.165308665,,,
,-35.25363477,-13.02109615,17.0279619,-0.427520897,0.262047706,0.209975127,,,
,-47.73815594,-20.24317186,17.52735191,-0.440118043,0.349916004,0.236863099,,,
,-59.48384804,-25.10076534,18.87477676,-0.42906789,0.4146316,0.248397655,,,
,-69.15119303,-28.56864969,19.28363944,-0.433838838,0.456181957,0.27890316,,,
,-74.75603807,-32.77209726,19.43535866,-0.456018552,0.503829358,0.342464832,,,
,-77.36534516,-42.08151552,17.8410463,-0.496382365,0.545266972,0.430525688,,,
,-78.96739245,-52.81971863,16.35106956,-0.498895617,0.602068603,0.505316718,,,
,-78.43563032,-62.6080723,14.5870471,-0.478560754,0.651111009,0.574130377,,,
,-76.83759374,-70.19775774,14.81204762,-0.489744852,0.718712844,0.655358716,,,
,-74.97914783,-78.95673544,18.4235152,-0.499313048,0.756322732,0.711617329,,,
,-64.71191603,-85.61169752,25.1420756,-0.510423547,0.68150581,0.71949735,,,
,-42.8772966,-85.71763742,29.28799821,-0.462338532,0.579733129,0.670008257,,,
,-14.93380116,-75.78764858,25.88755099,-0.440250765,0.533495311,0.641430683,,,
,65.73097876,-28.41395109,-4.486144944,-3.042082263,3.717599694,1.878398777,,,
,-282.779481,-255.0772581,0.99007107,-0.125241794,-0.543352294,0.003291233,,,
,-73.36650082,-133.375522,5.140691929,-1.312429867,1.132699796,1.563399286,,,
,-135.2643919,-154.313176,-14.33294032,0.386045668,-0.204422528,0.935184404,,,
,-130.2991397,-101.1747782,-22.375377,0.768765036,-0.19091366,1.541343731,,,
,-48.53622885,-45.00652236,-8.19914064,0.071428338,0.767025688,1.096612946,,,
,-36.22348043,-8.993145552,-16.17935411,-0.383807339,0.368502854,0.981840775,,,
,-10.22277028,4.321190395,-4.419338065,-0.565375535,0.017895821,1.031933129,,,
,13.32745668,5.805666747,8.164763172,-0.573596126,0.134883792,0.903314781,,,
,23.99260767,-3.636104759,18.73056328,-0.53648002,0.198090418,0.885491233,,,
,32.64444226,-13.94945966,24.07494171,-0.364353415,0.477091539,0.80904526,,,
,18.37246466,-14.88034419,13.95347037,-0.140121916,0.765362793,0.687899694,,,
,-0.596964727,-9.335774314,3.192291651,-0.201721611,0.68518104,0.726458308,,,
,-7.272152223,-8.13262024,-1.674698339,-0.302741386,0.557291131,0.765822426,,,
,-9.306037804,-5.776503195,-3.178540664,-0.365948726,0.463200204,0.81216371,,,
,-6.22157681,-5.386032457,-1.64278459,-0.359722528,0.463075331,0.840004893,,,
,-3.981139944,-5.187216102,-1.456974377,-0.334534251,0.479929867,0.850346075,,,
,-1.010525663,-3.347162143,-0.940395629,-0.353459633,0.442972681,0.847596024,,,
,2.411235585,-0.879261032,1.850424495,-0.364498063,0.423727421,0.846255352,,,
,5.470429141,0.79675511,2.060528119,-0.35343211,0.446093578,0.8382737,,,
,5.482174775,3.046130118,2.33623541,-0.339189704,0.472339755,0.821676656,,,
,5.667813101,2.412610684,1.665301832,-0.323421916,0.486183792,0.819789602,,,
,6.014853638,3.611868645,0.959589715,-0.317100204,0.49389949,0.814219368,,,
,4.426729221,4.200525483,0.016501184,-0.332878084,0.475418552,0.81842946,,,
,3.115458011,6.342184426,-0.036841186,-0.331311723,0.472319776,0.820719674,,,
,2.546167146,6.781929534,-0.760658769,-0.350218145,0.460042406,0.818794699,,,
,2.494830127,6.279159068,-0.559206808,-0.34546738,0.467768603,0.811705708,,,
,3.002814509,5.82463165,-0.400841273,-0.349385525,0.471660449,0.805584098,,,
,2.18554751,6.228280416,-0.665032113,-0.359600815,0.474805199,0.798049949,,,
,-0.971965604,4.415327361,-0.361765552,-0.351694597,0.491003976,0.791682875,,,
,-1.293853293,2.316926732,-0.742266824,-0.356431702,0.487149134,0.794892559,,,
,-1.96467228,1.79713942,-1.166943141,-0.359589501,0.483295821,0.796511723,,,
,-2.427450291,0.320569886,-1.186022636,-0.35962528,0.465525484,0.804250866,,,
,-1.286003771,-0.557889005,0.210676581,-0.358071254,0.460097859,0.810423344,,,
,0.141978942,-0.103132403,0.284473545,-0.353364118,0.455435372,0.815748216,,,
,0.141234096,-0.860639904,0.434302009,-0.372260143,0.455499388,0.813847197,,,
,0.971163463,-1.441046151,1.521546721,-0.372246585,0.461681855,0.810749643,,,
,1.496909536,-1.617287968,2.504341227,-0.364376555,0.469354536,0.815249134,,,
,1.99005431,-1.389365357,1.740645782,-0.343092661,0.477023649,0.810114985,,,
,2.33188093,-1.008520311,0.925498726,-0.338363099,0.48163792,0.810016208,,,
,1.237932612,-1.096813107,-0.426910853,-0.339141182,0.483194699,0.806927727,,,
,0.932145037,-1.099276826,-0.585276388,-0.358061876,0.466274516,0.808880632,,,
,1.039173553,-2.049068963,-0.024866368,-0.365925382,0.466315189,0.804396126,,,
,0.344519522,-1.969313238,0.840586381,-0.365933843,0.470925382,0.809069215,,,
,0.331971746,-2.694505919,0.474695533,-0.350163303,0.483232722,0.805624465,,,
,0.735448626,-2.203710272,0.018334649,-0.329741794,0.466144546,0.820671764,,,
,2.372560934,-0.829241817,0.20471782,-0.323439348,0.458424669,0.817403772,,,
,4.706962879,0.611918925,-0.627961743,-0.321153109,0.441359633,0.840637717,,,
,8.684722371,5.569378952,-1.202351933,-0.306198165,0.476741182,0.855135066,,,
,11.34164226,11.14397182,-1.790263927,-0.296702548,0.499889195,0.845636086,,,
,13.46210176,18.33092522,-4.535820385,-0.265242915,0.508979511,0.864369623,,,
,24.99711728,27.78043165,-5.594990165,-0.31905209,0.396295719,0.924451988,,,
,40.74279963,45.01122061,-6.22931174,-0.283093476,0.360365545,1.013730683,,,
,75.97976132,63.70133307,-10.08611984,-0.308931906,0.211614781,1.205248828,,,
,101.0075318,115.4607933,-21.3177542,-0.151072885,0.456629664,1.15238104,,,
,126.0463032,124.3370555,-27.60499198,-0.580918043,0.527474312,1.117235168,,,
,155.9917704,119.522663,-33.8793382,-0.25820897,0.657981957,1.228285627,,,
,175.163282,133.0150742,-34.47767803,-0.543044648,0.496646891,1.08055474,,,
,193.3565828,95.2140118,-32.5272724,-0.914223547,1.395279511,1.165398471,,,
,163.86295,103.7644329,-5.73502105,-1.083425586,1.632827421,0.900769011,,,
,65.04595042,77.68081572,10.93192014,-0.998204587,2.061151682,0.97584159,,,
,26.70848492,89.32182843,19.76056951,-0.654551784,1.00585107,0.530643323,,,
,52.17972477,93.34118466,8.767629364,-0.900580224,0.614004995,0.52304842,,,
,53.76704704,62.22969097,-7.5276914,-1.032523853,0.767874006,0.731569623,,,
,31.69516579,39.22686789,-22.37308517,-0.799868705,0.715261162,0.590909072,,,
,17.2709533,32.45765802,-35.34404751,-0.654630071,0.54812212,0.41315158,,,
,15.74785959,25.42219467,-43.91572531,-0.572601937,0.444049235,0.333345973,,,
,14.43418196,18.6692568,-46.51345865,-0.462184608,0.428540979,0.267835474,,,
,9.632852931,16.36779993,-43.82943786,-0.339158818,0.411465138,0.19892528,,,
,5.537006836,17.04228584,-37.10148095,-0.250827829,0.368238226,0.137750663,,,
,3.492005874,19.73427075,-27.5015731,-0.187744343,0.301909276,0.086434353,,,
,4.551977795,22.30243947,-14.98078369,-0.135677982,0.217135882,0.026005199,,,
,6.823010608,29.35342999,-3.952663941,-0.070153007,0.121637309,-0.064289806,,,
,13.83211791,39.74648332,3.67180003,-0.039405912,0.031455454,-0.10558787,,,
,23.44812588,47.48777338,9.677371751,-0.102540469,0.022982773,-0.059080632,,,
,24.13911298,43.70613735,14.14529664,-0.238311315,0.112307849,0.087216106,,,
,10.6229813,28.99578973,17.71637069,-0.344125178,0.227779918,0.230549032,,,
,-8.856552414,8.541368331,19.40023635,-0.380527217,0.216853007,0.292765647,,,
,-23.64373367,-12.71536587,17.02309176,-0.390007034,0.136717941,0.278055861,,,
,-29.30587449,-30.18805761,12.84955258,-0.37886789,0.113735168,0.228008563,,,
,-36.47334732,-40.89394589,8.304507578,-0.358240163,0.224827625,0.206768196,,,
,-47.01021306,-47.41655473,6.936570843,-0.366093476,0.363554638,0.242975331,,,
,-60.77254471,-53.17208767,12.0063306,-0.36456208,0.472884302,0.29445739,,,
,-72.07241835,-60.53006897,18.2279647,-0.397805708,0.542081244,0.379301121,,,
,-80.41777781,-73.60009571,26.19494284,-0.437392966,0.614316718,0.48139633,,,
,-87.7461372,-85.55044833,34.28711226,-0.440641794,0.712796432,0.550067074,,,
,-96.11309718,-93.3378615,40.23355474,-0.409187258,0.786592966,0.591469521,,,
,-103.0200461,-94.29705015,46.35744225,-0.407613761,0.852840265,0.613328236,,,
,-98.87114411,-92.1052001,55.22132852,-0.413986952,0.806531193,0.62581998,,,
,-81.55916704,-86.41544272,60.07571344,-0.442460856,0.727860754,0.646525484,,,
,-58.4458204,-76.50149669,58.87261666,-0.464604383,0.664622324,0.660898267,,,
,-34.83571935,-65.95764087,51.6227525,-0.522990112,0.703163507,0.713607747,,,
,-4.182706496,63.08500237,-46.9568134,-1.771893884,4.027414883,0.544152905,,,
,-319.0538973,-224.1571323,2.898249711,-1.504058512,-0.164086748,0.947262283,,,
,-68.34876563,-143.2503923,-7.645491522,-1.38568318,0.649092049,1.41254577,,,
,-126.0482512,-155.4200731,-9.960527494,0.215924873,0.184352294,1.064194699,,,
,-47.42767011,-61.60046872,0.702045186,0.343895311,-0.130511519,1.408899286,,,
,-72.88951346,-15.94936885,-20.0457879,0.020806626,0.551922834,1.109783078,,,
,-33.82651149,7.976833015,-15.35045606,-0.360344954,0.358953109,1.040363303,,,
,-1.938144334,12.80675264,0.493946915,-0.726169215,-0.09506371,1.046260347,,,
,24.81004656,-1.468834604,22.616936,-0.7288316,0.033528542,0.904323547,,,
,39.33865196,-17.06692303,33.86868119,-0.590526911,0.352752497,0.824840775,,,
,33.53951693,-23.11552388,27.92905691,-0.10708104,0.779079511,0.705828848,,,
,9.993357975,-14.82241816,11.88022259,-0.036184913,0.811248318,0.709716718,,,
,-1.101855136,-9.346431329,2.770250939,-0.238087768,0.601887666,0.751998573,,,
,-3.871189343,-7.583039123,0.221734667,-0.269798879,0.51848002,0.803861264,,,
,-6.327688594,-0.785066771,-2.586102304,-0.284017635,0.53232844,0.824422834,,,
,-4.962043689,2.552183203,-1.768606122,-0.384941794,0.458503058,0.845234862,,,
,1.385927611,0.775097305,0.822309028,-0.390518247,0.422990316,0.857729562,,,
,5.496212241,-0.985544703,3.692942173,-0.377111519,0.429139755,0.852772069,,,
,8.870360697,-1.515645255,5.122987534,-0.342396432,0.452238022,0.836479409,,,
,10.60493313,0.669157409,5.215233739,-0.304515087,0.489217023,0.818587156,,,
,9.518318667,3.12416697,3.780375532,-0.288705097,0.516218145,0.80506524,,,
,8.638026311,4.463570407,2.442862855,-0.318650866,0.503183792,0.808054332,,,
,7.515430103,4.409082121,2.169963057,-0.329685729,0.493188583,0.80828634,,,
,7.327786425,5.19254461,2.739597697,-0.345440571,0.484755657,0.807074414,,,
,8.345015695,4.077683332,3.002413438,-0.359625688,0.474769623,0.807378287,,,
,7.356319723,4.333738171,4.585896896,-0.351707238,0.495608257,0.797910703,,,
,7.245796165,2.353309552,4.724609979,-0.357983486,0.50490632,0.791853517,,,
,6.260881715,1.11646556,4.186717201,-0.334327421,0.518745158,0.785122732,,,
,3.432418263,0.012834255,2.801076069,-0.314632212,0.520236391,0.783121916,,,
,1.735546457,-0.064572344,1.748438008,-0.315432008,0.515598879,0.786240367,,,
,1.175308325,1.042955074,1.235297006,-0.334370846,0.501734353,0.795972885,,,
,0.362453101,0.388236202,1.373379835,-0.340687971,0.497106932,0.800771662,,,
,1.146373956,-0.944635517,2.814082211,-0.350936799,0.492499898,0.803328338,,,
,2.106823108,-2.222216808,2.816144859,-0.343079103,0.483206116,0.807017533,,,
,2.734956739,-0.828611563,3.504439058,-0.334394903,0.497848114,0.80373894,,,
,3.65673124,-1.275633235,3.976498986,-0.335970744,0.497081346,0.803773394,,,
,3.235263486,-0.992878563,3.201745455,-0.326502141,0.507864322,0.800469317,,,
,2.70630885,-1.021068087,2.217690442,-0.321749439,0.517904587,0.793384811,,,
,2.189329031,-1.690282791,1.94782732,-0.313874924,0.518649949,0.793983996,,,
,1.12162218,-0.780311221,1.630465998,-0.309166871,0.507825688,0.79696473,,,
,1.514327453,0.307048082,0.565108273,-0.321770948,0.504777064,0.797246177,,,
,0.749027726,0.25359112,0.349103185,-0.339897554,0.49556789,0.799196024,,,
,1.454109588,0.192341932,0.10141353,-0.332788889,0.504820999,0.794388175,,,
,1.484017985,-1.456687898,-0.527751425,-0.331202854,0.50791366,0.791248828,,,
,1.525213651,-0.921201543,-1.245495655,-0.30917737,0.495484302,0.796940877,,,
,2.96981214,1.122252433,-0.850613143,-0.315534149,0.483096228,0.814162487,,,
,6.560710529,4.642104056,-0.209129595,-0.31558369,0.47840316,0.831255454,,,
,10.13178458,9.651359467,-0.789478546,-0.295110398,0.507612742,0.841728338,,,
,13.60075755,16.02339499,-1.773418967,-0.269907543,0.522176962,0.845846177,,,
,21.45434734,24.39614185,-3.304247605,-0.248058206,0.465583282,0.903536086,,,
,35.65298635,39.52784262,-4.591397291,-0.24673843,0.415908563,0.983472477,,,
,65.34807107,58.79692894,-5.129576548,-0.196708155,0.27578318,1.078445056,,,
,85.10176509,91.77552019,-12.99932375,-0.08040948,0.217285729,1.156520082,,,
,151.4953122,127.2863557,-10.60510501,-0.275428542,0.365434251,1.094406932,,,
,158.6457682,147.5581182,-9.931765012,-0.238706524,0.477740367,0.944544546,,,
,166.6512491,177.2534894,-17.18902033,-0.331137309,0.617817635,1.097725586,,,
,166.1164503,183.3071895,-19.65325451,-0.46087054,0.703253211,1.045660958,,,
,168.0838155,175.5392569,-15.14843115,-0.949031091,1.131684608,1.139247299,,,
,148.4896329,150.8734811,-8.099159505,-1.578415291,1.255098981,1.230014985,,,
,126.8055295,54.61571213,14.5571387,-1.178101223,1.463379613,0.910369011,,,
,111.4855548,34.01232171,4.605377461,-1.102850765,1.945630785,0.606443425,,,
,5.63320645,32.27895249,-29.68465689,-0.732964526,1.360188277,0.516023547,,,
,-21.62245316,32.03962802,-58.94498123,-0.78356106,0.765314577,0.397860449,,,
,-6.182214609,15.99096558,-77.53333639,-0.860735984,0.512861264,0.315175535,,,
,1.743281387,-2.494142578,-87.90656538,-0.709272375,0.592893884,0.245029664,,,
,-7.283496787,-3.670424931,-90.36249167,-0.483667482,0.672864832,0.132772885,,,
,-22.44739779,7.89667622,-88.28408727,-0.332263914,0.618762181,0.042155657,,,
,-28.054019,19.32981984,-76.307264,-0.269289297,0.458288991,0.001539959,,,
,-18.98535761,24.1035323,-55.64388489,-0.241065647,0.271584811,-0.010351376,,,
,-1.526588749,22.98248308,-30.27864223,-0.204920795,0.152717329,-0.017626707,,,
,12.80956013,23.13798382,-8.439209956,-0.121375841,0.130989195,-0.049112029,,,
,15.15656715,30.55480789,6.301619014,-0.069392253,0.133923038,-0.050291437,,,
,8.944558731,37.24122536,14.44191689,-0.066341998,0.118362895,-0.017744037,,,
,0.700383609,39.51684183,17.99620327,-0.102797655,0.085788379,0.057645872,,,
,-7.9485289,33.53138093,21.12397988,-0.155821407,0.0778737,0.152117329,,,
,-16.92654837,20.23303051,24.91111631,-0.205711825,0.079170336,0.255863303,,,
,-27.82678394,-4.025257694,29.67044753,-0.276785117,0.099135576,0.335254434,,,
,-38.8643002,-29.23797899,33.2833475,-0.273669827,0.096765138,0.347615902,,,
,-51.24448576,-48.18053665,31.93878744,-0.240465036,0.120730989,0.307262589,,,
,-62.19479784,-56.60639669,28.23100566,-0.22300051,0.192524159,0.278244139,,,
,-73.81581432,-63.47598877,28.59781325,-0.27972844,0.342886544,0.335798675,,,
,-86.96949291,-74.2369956,34.77498583,-0.341253313,0.48468634,0.41754261,,,
,-95.84827608,-87.18097163,41.70531143,-0.377538634,0.518609276,0.45030632,,,
,-92.66532364,-95.37237734,45.63981261,-0.358562793,0.449323445,0.399989704,,,
,-71.17109844,-93.00909832,42.19364336,-0.312752294,0.395448522,0.33276789,,,
,-41.47710234,-77.60065893,33.22037944,-0.352179715,0.551115392,0.401598063,,,
,-26.44910692,-68.18971255,24.23113,-0.566612232,0.925856575,0.604659021,,,
,-21.44890424,-60.71507704,17.83772315,-0.584833333,1.07829633,0.693987054,,,
,27.37735585,35.91923984,-28.08816729,-4.242158104,5.086489093,1.672910805,,,
,-373.4220917,-293.7122605,3.449893476,-0.581741692,0.248012334,-0.437928542,,,
,-109.509939,-143.2102279,10.83291303,-1.628255759,0.593923751,1.102377064,,,
,-133.7260003,-215.9638931,-13.78530726,-0.337024771,0.167386137,1.093868909,,,
,-110.9893734,-174.0731152,-17.26929172,0.433114679,0.215454842,1.43474842,,,
,-34.94572725,-46.41450884,9.266962083,0.609369725,0.048655454,1.143573394,,,
,-87.61521634,-18.8674429,-19.99937832,-0.384192355,0.344070642,1.118609684,,,
,-26.67628469,1.649488196,-6.7117995,-0.399779205,0.348204077,1.058342304,,,
,2.088774938,7.751603306,5.599688419,-0.666203466,-0.059644241,1.015424465,,,
,14.94560409,1.0507473,17.51297067,-0.596276962,0.15674893,0.851017023,,,
,23.30918361,-13.28660479,24.16289073,-0.551064934,0.362000306,0.795975739,,,
,18.43944342,-20.52764541,19.35938446,-0.053460754,0.825239042,0.695368909,,,
,-4.623654815,-11.82854179,1.774221108,0.047326606,0.840318756,0.707092355,,,
,-15.11032945,-8.403801164,-7.655690171,-0.183150663,0.558307441,0.809737003,,,
,-16.26002656,-4.566989289,-10.77527348,-0.2777263,0.511495923,0.821129358,,,
,-14.49938456,1.404663331,-8.74854987,-0.402315698,0.42767054,0.853343833,,,
,-8.575573911,2.059725978,-4.960725886,-0.408664016,0.410672171,0.865892355,,,
,-3.44874756,2.520498637,-2.573783712,-0.377903058,0.424514067,0.85278104,,,
,-0.591005966,0.262128191,-1.162187592,-0.367611723,0.45229368,0.841718349,,,
,0.333805211,0.329851803,-0.481284548,-0.346298063,0.458464526,0.824920795,,,
,0.909799683,1.923304727,0.053170483,-0.343911213,0.460032926,0.81631896,,,
,1.064211809,3.491031846,-0.241673598,-0.329740469,0.467687156,0.820674822,,,
,1.575691232,4.048290597,-0.281952531,-0.334479511,0.461518451,0.82388002,,,
,3.199224441,3.581329994,-0.4167695,-0.353400714,0.453842406,0.828960245,,,
,3.818076155,1.669770902,0.449829165,-0.351855861,0.437616106,0.835111825,,,
,4.131770548,3.606310954,0.520875932,-0.345518247,0.446895209,0.824103058,,,
,3.224778358,4.382496879,0.772289812,-0.355736799,0.446183282,0.816561468,,,
,2.601744052,3.81108607,0.399179696,-0.328146075,0.470791641,0.814425994,,,
,2.16314486,2.551037287,-0.901549091,-0.330490418,0.475447197,0.809047299,,,
,0.053055892,2.567538472,-2.267423178,-0.329697248,0.474682467,0.806695821,,,
,0.320970957,1.978365971,-1.548647624,-0.347061366,0.45541998,0.814827115,,,
,0.538694919,3.160377902,-1.176855311,-0.351805912,0.44770265,0.819584098,,,
,1.377390539,3.093857502,0.017303325,-0.377828644,0.429242712,0.826359837,,,
,2.587821177,1.562112133,0.073625077,-0.356537105,0.450789908,0.822807238,,,
,2.272637094,1.700825215,-0.393335526,-0.339968807,0.45309419,0.81232895,,,
,1.968912167,1.651436253,-0.34658217,-0.334475943,0.458441998,0.821541998,,,
,1.278383432,2.198324468,0.730062823,-0.349402752,0.470865443,0.811801427,,,
,2.807092126,2.600197066,0.702388961,-0.362026911,0.453920897,0.815165443,,,
,2.501476438,1.641466787,0.948646221,-0.364386544,0.462406524,0.816790418,,,
,3.508507058,0.057009301,0.898283231,-0.355714781,0.46239317,0.813483384,,,
,4.020387553,0.259148811,0.957011405,-0.345506218,0.456157187,0.822566259,,,
,4.84011827,1.277925066,1.028401946,-0.354951172,0.458504587,0.8212316,,,
,5.664260763,-0.069156006,2.006899269,-0.359658818,0.460084709,0.815123445,,,
,5.131066239,-1.869962356,1.318490478,-0.359616718,0.475552803,0.804270336,,,
,3.408411332,-1.754396769,1.553116695,-0.365924975,0.474019674,0.806743119,,,
,2.281976306,-3.280068786,1.575748528,-0.33915209,0.480097554,0.810031193,,,
,0.438255417,-1.932529347,0.480883477,-0.336007339,0.483161876,0.813074822,,,
,0.895762217,-2.040245413,0.381933666,-0.331319776,0.467685831,0.822265443,,,
,2.357091073,-1.002275071,-0.513943142,-0.34075209,0.480066565,0.819395413,,,
,3.885054921,0.614382644,-0.737110203,-0.332874822,0.496223955,0.823911417,,,
,4.189868468,3.78679266,-1.79049311,-0.32034261,0.482991641,0.845364628,,,
,6.941211801,8.583652616,-2.795862153,-0.31878736,0.481417737,0.852322018,,,
,11.64565366,14.25788284,-3.151439761,-0.322041488,0.468952396,0.88735107,,,
,20.74158785,23.97123635,-4.038091949,-0.320707136,0.39002314,0.952460856,,,
,39.74161318,39.04420895,-3.407322712,-0.284532722,0.379053823,0.968715698,,,
,65.26006475,54.00207433,-2.789445026,-0.379177982,0.252791845,0.980731397,,,
,86.77869796,86.33706209,-11.45342632,-0.098444139,0.458944139,0.908662589,,,
,96.02732539,91.84605129,-13.99552547,-0.338036901,0.420885627,0.963798777,,,
,95.22570014,93.60657871,-30.8193998,-0.228114883,0.390032518,1.079384608,,,
,105.4366102,98.27091353,-22.74241376,-0.37574842,0.698472069,1.018836799,,,
,137.7679883,102.6821156,-18.81696532,-0.605537003,0.462127319,0.87747737,,,
,158.7263834,66.25259954,-6.566898473,-0.935866871,0.912117431,0.857128338,,,
,124.5548367,69.80161472,-1.843835481,-0.925288481,1.181798573,0.520059123,,,
,127.2483113,54.74055963,14.77062278,-1.057094597,1.496463507,0.432733843,,,
,50.73157394,34.23291046,15.35418029,-1.000995209,1.510068909,0.66389949,,,
,25.84492293,50.61801371,6.080629192,-0.723677676,0.908472273,0.432532008,,,
,22.43020906,45.82573741,-11.38031691,-0.955746075,0.748936188,0.580537105,,,
,13.86328681,18.10666954,-27.40462864,-0.875599185,0.706062691,0.635370133,,,
,4.001250762,2.571721063,-41.35987517,-0.637523547,0.610159123,0.515488889,,,
,0.253820303,0.305100026,-55.58704748,-0.474287258,0.505202854,0.401182773,,,
,3.2296485,-0.24476757,-64.66246977,-0.392329562,0.430304485,0.357192559,,,
,8.046561979,-3.14479345,-67.14486672,-0.32458369,0.401620999,0.341600204,,,
,12.48314607,-8.103342097,-62.13647074,-0.271775331,0.421554536,0.331884709,,,
,10.2075296,-11.86813318,-52.17600054,-0.202400612,0.395254434,0.296826911,,,
,9.431114491,-12.33566674,-39.08947262,-0.105439144,0.318057696,0.236943731,,,
,7.860350696,-9.241236278,-26.29183001,-0.06527156,0.233197452,0.208655759,,,
,6.593712898,-7.120834069,-13.69712905,-0.078037819,0.197560449,0.259402752,,,
,1.116637447,-10.40542922,-1.814156267,-0.100272681,0.22663945,0.337698369,,,
,-13.39770131,-14.8001874,11.06725277,-0.102013863,0.274942304,0.415564322,,,
,-33.0973654,-20.58918107,24.3763748,-0.087940469,0.267819878,0.451763507,,,
,-47.82725088,-25.24583826,36.93847446,-0.069056983,0.238462997,0.448943629,,,
,-58.19171362,-26.59068479,48.35305425,-0.058810296,0.213791845,0.437779205,,,
,-62.56561613,-26.7114643,58.83302528,-0.074617941,0.196809174,0.453652701,,,
,-63.24508678,-28.15623467,66.27821075,-0.14081366,0.273987462,0.494178899,,,
,-69.96416284,-28.82006357,68.65999631,-0.195218552,0.387307136,0.554717125,,,
,-78.36085933,-28.96026635,68.03822251,-0.245727931,0.477442712,0.623671764,,,
,-84.12624714,-32.7498092,65.00372344,-0.282055046,0.520550663,0.67510999,,,
,-85.17710904,-38.47652237,59.13491674,-0.30415739,0.50590632,0.689576962,,,
,-74.10011598,-42.92897739,54.86712601,-0.218968603,0.360237207,0.592516922,,,
,-45.55759316,-30.54237471,50.65302143,-0.026621305,0.212781448,0.475132008,,,
,-13.10921706,-2.054741245,47.09919341,0.100997146,0.307209888,0.491840265,,,
,13.70492128,30.88769637,44.9624619,0.047280836,0.530552905,0.624868705,,,
,-56.78470116,297.0942012,-63.22635106,-6.023271662,8.085388277,3.701547604,,,
,-329.2087148,-297.05736,23.27961899,1.424468603,-2.738551988,-1.226410092,,,
,-83.85168577,-128.3921643,-12.27344352,-3.15994577,1.698763914,1.425512844,,,
,-68.16925796,-136.778261,-16.68556232,0.207645362,1.46408787,0.443479409,,,
,-57.4874339,-84.08413475,-6.420450461,-0.166002141,-0.297854128,1.193219878,,,
,-63.29201202,-37.65243717,-16.07679466,-0.292114271,0.201592253,1.392956677,,,
,-26.48073419,8.063292347,-9.139994635,0.032259123,0.595641794,0.963471865,,,
,-2.953769321,10.16776633,-2.821530662,-0.703752905,0.045604077,0.954301121,,,
,17.96216958,2.235967795,10.00584846,-0.605740877,0.166002854,0.859024057,,,
,22.61619116,0.960449152,15.76871525,-0.444060754,0.336881142,0.826134353,,,
,23.97278333,-6.322073607,17.5871687,-0.406881346,0.435616616,0.795941896,,,
,20.99076719,-13.21670394,13.63817169,-0.231780734,0.628842406,0.758126096,,,
,9.117591985,-9.288791775,6.298525042,-0.056848114,0.692401121,0.741825178,,,
,-1.349773974,-0.946526278,-2.060528119,-0.168882365,0.578427421,0.781467584,,,
,-4.436354912,1.773533559,-5.317621297,-0.283975025,0.521603772,0.80496789,,,
,-8.813007622,1.026625777,-5.432384743,-0.332780632,0.504832926,0.791278695,,,
,-8.858615062,-0.139973589,-5.340425017,-0.378572783,0.446255759,0.815527625,,,
,-6.657826875,-3.618572251,-3.899092387,-0.384952294,0.416886442,0.83582579,,,
,-2.939388081,-4.901539346,-0.515089058,-0.400709174,0.406139551,0.834609378,,,
,0.36165096,-2.056918485,1.351492847,-0.377074006,0.424570948,0.837215902,,,
,1.306859435,-1.299239096,2.964884702,-0.351831804,0.456139959,0.832038328,,,
,2.01950434,-0.183632973,2.932283404,-0.328161264,0.484637207,0.824558512,,,
,1.576149599,0.720036061,0.824543563,-0.315542915,0.492328542,0.820399388,,,
,0.06869764,-0.236746161,-0.643431604,-0.309234047,0.496944139,0.818709888,,,
,-0.094366149,0.907851626,-1.562341316,-0.320265341,0.486183486,0.817385729,,,
,-0.387548653,1.633846449,-1.200575764,-0.332878186,0.477729664,0.819211315,,,
,-1.395954372,1.901360443,-0.954547687,-0.35652528,0.464673904,0.822834149,,,
,-0.678439325,1.656077211,-0.58619312,-0.362825994,0.464692355,0.82297788,,,
,-0.473664209,0.144270773,-0.029908397,-0.35335209,0.46469735,0.814211417,,,
,-0.872270947,0.157276915,0.425764938,-0.328154128,0.466157696,0.815971764,,,
,0.143239449,2.021165918,-0.111440291,-0.324215087,0.472311009,0.817448624,,,
,-0.69751882,0.919310782,-1.312990083,-0.342333028,0.470818145,0.818636086,,,
,-0.582010528,0.334721944,-0.441693164,-0.345487462,0.468510296,0.819480734,,,
,-0.997118451,0.220646047,-0.910945598,-0.354945056,0.460824567,0.819681346,,,
,-0.472117223,-0.614210756,0.169309028,-0.352592559,0.458491845,0.822732416,,,
,0.140145477,-0.156761253,0.232391682,-0.342340367,0.464644444,0.819401427,,,
,-0.071390541,0.234053259,-0.333232254,-0.343922324,0.461557798,0.820986137,,,
,-0.063483724,-0.458423532,0.330596648,-0.342333028,0.470818145,0.818636086,,,
,-0.291349039,0.089553303,1.565549879,-0.342335678,0.467732824,0.818630071,,,
,-0.460543476,-0.139515223,0.738370711,-0.337614271,0.467713048,0.820077064,,,
,-1.078707641,-1.059112484,0.568775203,-0.337609582,0.470801427,0.819305708,,,
,-1.791237955,-0.551872948,0.408748091,-0.339176453,0.470817839,0.81623211,,,
,-1.186194523,-0.612319996,0.159797929,-0.342326198,0.471598369,0.816305505,,,
,-1.380885582,-1.053096427,0.719176624,-0.3407579,0.470813558,0.818600102,,,
,-0.878000525,-0.862702552,0.366979468,-0.33446473,0.469243629,0.820785525,,,
,-1.490549704,-0.159282267,0.003552338,-0.331327319,0.466134353,0.824594495,,,
,-0.876969201,0.602522417,-0.032945073,-0.343926504,0.461551886,0.822540877,,,
,-0.169538212,-0.565795823,0.122784855,-0.347055046,0.467755454,0.81640581,,,
,-1.798858294,-0.464496885,-0.05362885,-0.339188175,0.469260347,0.820115902,,,
,-1.800061505,0.138541195,-0.306245941,-0.337623344,0.469240979,0.823966871,,,
,-1.28629025,-0.00733386,-0.043258314,-0.347085015,0.459238226,0.824940265,,,
,-1.277638587,-0.244824866,0.520704044,-0.343137615,0.463092253,0.822525892,,,
,-0.722958146,-0.202082214,0.323262788,-0.339188889,0.470800102,0.82089633,,,
,-1.479491619,-0.136020181,0.724677019,-0.332855963,0.474679817,0.809877064,,,
,-2.920022107,-0.107830657,-0.168907958,-0.328128644,0.481602141,0.811337513,,,
,-3.324071944,-0.155156971,-0.12312863,-0.342329664,0.47236371,0.817861672,,,
,-3.017826003,-0.157563394,-0.170798719,-0.35023262,0.460021713,0.82423629,,,
,-2.487840042,-0.428228656,1.017000086,-0.354963405,0.45386473,0.82433211,,,
,-1.689480651,-0.404737386,0.25616943,-0.340784913,0.458448522,0.824795107,,,
,-2.173400804,-0.513656663,1.636940421,-0.334469929,0.463072987,0.820773598,,,
,-1.939175658,-0.39654409,0.509531367,-0.334481448,0.459204485,0.823875535,,,
,-0.567743879,-0.149771168,0.427541107,-0.328175637,0.467667788,0.824525688,,,
,-2.106307446,0.086000965,-0.363312538,-0.328176147,0.464585423,0.823742304,,,
,-0.890892076,0.529814073,-0.70307651,-0.32816789,0.464597248,0.820632926,,,
,-1.800920942,1.348914537,-0.657984732,-0.325020387,0.466124873,0.822118756,,,
,-2.531270243,1.01912003,-1.544293145,-0.328164628,0.468453925,0.820640367,,,
,-2.575674472,0.726911555,-1.135487758,-0.334463201,0.46616422,0.819224873,,,
,-2.016353073,0.521907256,-1.129414406,-0.342349745,0.45846789,0.820944241,,,
,-2.00621172,1.143795646,-0.764784065,-0.339203568,0.458452803,0.822427115,,,
,-0.898455119,1.122768095,-1.315511098,-0.336840775,0.458445872,0.822373191,,,
,-0.893928752,1.280102306,-1.160010352,-0.338429664,0.456890112,0.827070336,,,
,0.229870667,1.739958232,-0.986747915,-0.339213761,0.456126911,0.825532008,,,
,0.894616301,1.693663242,-0.771946037,-0.343939348,0.456140673,0.825639857,,,
,-0.070989471,1.546928751,-0.683309466,-0.340780224,0.461536799,0.824023751,,,
,0.033346144,1.19845582,-0.427140036,-0.343921713,0.462329154,0.820987666,,,
,0.270722558,0.968184082,-1.248589627,-0.339198267,0.464623445,0.822439042,,,
,-0.274962446,1.446947616,-0.635582082,-0.334467278,0.466158308,0.820779613,,,
,0.176413705,0.981075633,-0.838695621,-0.336827115,0.462317329,0.818493884,,,
,0.226604808,1.283024391,-0.938390277,-0.332890214,0.468467686,0.820748114,,,
,-0.585333684,0.63208704,-0.697117749,-0.34076106,0.46464577,0.817810805,,,
,0.233136527,0.940281038,-0.529126524,-0.345489195,0.46157421,0.81791264,,,
,-1.189746862,1.047710624,-0.496467929,-0.339183282,0.467726606,0.817780836,,,
,-1.127924715,0.760429586,0.118716855,-0.337620897,0.462310805,0.820843935,,,
,-0.734589189,0.687492058,-0.544882863,-0.334467278,0.466158308,0.820779613,,,
,-1.299296392,1.033673158,-0.961193997,-0.340771356,0.46231998,0.8209158,,,
,-0.692648679,0.92504036,-1.108100376,-0.339196738,0.461544037,0.820878389,,,
